aX,aY,aZ,gX,gY,gZ
0.413,0.092,2.304,67.749,96.68,-3.601
0.501,0.181,2.416,42.847,100.769,-0.305
0.43,0.232,2.576,24.719,101.135,3.784
0.327,0.181,2.646,20.508,98.877,4.517
0.263,0.086,2.577,17.944,103.149,2.502
0.26,0.003,2.364,1.16,125.0,-1.709
0.278,-0.001,2.209,-23.56,169.006,-11.23
0.347,0.059,2.165,-45.41,222.656,-29.48
0.517,0.158,2.129,-59.692,263.977,-50.415
0.682,0.258,2.056,-72.144,284.607,-62.683
0.718,0.293,1.948,-78.735,287.354,-63.477
0.67,0.274,1.815,-77.759,277.649,-60.73
0.66,0.186,1.615,-71.716,264.16,-59.082
0.655,0.102,1.461,-66.772,254.7,-57.617
0.614,0.033,1.443,-65.002,249.084,-54.626
0.569,-0.016,1.468,-67.2,242.92,-52.551
0.497,-0.004,1.461,-73.364,233.398,-50.293
0.437,0.019,1.408,-78.369,219.788,-43.518
0.383,-0.053,1.29,-82.581,205.75,-32.288
0.318,-0.175,1.14,-90.332,195.251,-26.245
0.192,-0.163,0.941,-99.121,186.768,-33.325
0.099,-0.086,0.741,-99.609,186.279,-45.532
0.063,-0.016,0.549,-91.614,197.205,-58.289
0.007,0.035,0.359,-77.942,216.858,-66.284
0.058,0.025,0.246,-58.044,243.774,-70.557
0.176,0.012,0.195,-32.959,269.653,-74.585
0.27,-0.026,0.145,-6.714,285.339,-76.782
0.347,-0.034,0.057,19.348,286.438,-77.759
0.38,-0.082,-0.024,44.434,277.039,-75.623
0.47,-0.138,-0.007,66.65,260.071,-69.214
0.474,-0.464,-0.019,82.092,230.835,-56.824
0.576,-0.635,-0.005,89.905,189.453,-55.969
0.509,-0.677,-0.232,86.365,141.296,-54.382
0.471,-0.799,-0.385,68.604,108.276,-46.143
0.489,-0.882,-0.454,47.913,89.111,-41.382
0.467,-0.814,-0.367,28.564,76.965,-41.809
0.414,-0.636,-0.171,15.198,63.11,-39.978
0.279,-0.434,-0.17,11.658,37.72,-29.358
0.108,-0.315,-0.244,14.343,18.25,-5.981
-0.004,-0.334,-0.257,21.79,15.442,22.339
-0.007,-0.409,-0.22,32.715,22.4,43.396
0.058,-0.493,-0.174,40.894,29.846,54.565
0.172,-0.574,-0.087,42.603,33.691,57.556
0.278,-0.635,-0.035,36.804,29.785,54.749
0.326,-0.66,-0.033,24.231,18.677,47.791
0.353,-0.603,-0.053,7.69,5.859,38.696
0.409,-0.498,-0.059,-8.728,-3.601,33.997
0.47,-0.413,-0.052,-24.292,-10.62,36.438
0.527,-0.371,-0.069,-37.048,-17.273,41.748
0.561,-0.329,-0.094,-47.302,-23.193,42.664
0.59,-0.26,-0.053,-56.763,-26.794,39.185
0.606,-0.161,0.023,-65.125,-30.334,35.4
0.576,-0.048,0.093,-70.435,-36.255,36.926
0.527,0.033,0.14,-71.899,-41.931,44.373
0.51,0.081,0.135,-69.336,-45.41,54.504
0.51,0.108,0.087,-65.796,-44.006,65.308
0.522,0.114,0.036,-62.256,-33.142,71.106
0.589,0.131,0.033,-59.387,-16.357,69.336
0.692,0.199,0.102,-57.068,0.793,62.195
0.802,0.267,0.176,-55.847,11.536,54.504
0.856,0.315,0.206,-56.152,13.733,49.805
0.867,0.323,0.192,-56.946,11.902,46.265
0.868,0.327,0.157,-56.091,10.193,39.001
0.887,0.373,0.139,-53.284,11.902,28.564
0.922,0.412,0.16,-49.683,16.052,18.982
0.943,0.433,0.19,-45.715,18.921,12.39
0.945,0.438,0.198,-39.856,18.86,9.033
0.957,0.445,0.219,-32.227,17.944,7.996
0.981,0.43,0.243,-23.376,16.602,9.399
0.964,0.406,0.253,-14.526,13.062,11.902
0.963,0.366,0.232,-6.287,9.644,14.282
0.971,0.332,0.207,1.16,9.094,14.526
0.979,0.303,0.207,7.69,11.108,12.634
0.995,0.268,0.211,11.23,13.306,9.827
1.003,0.24,0.22,13.184,14.648,6.836
1.008,0.206,0.212,13.489,14.771,4.089
1.0,0.177,0.197,11.353,15.381,1.831
1.021,0.154,0.219,8.972,17.944,-0.977
1.06,0.166,0.248,5.493,18.311,-4.578
1.08,0.196,0.284,1.038,14.038,-5.493
1.077,0.227,0.312,-1.221,6.287,-4.761
1.034,0.258,0.317,-0.549,-3.967,-1.892
0.979,0.275,0.29,2.869,-12.573,3.052
0.936,0.279,0.219,7.812,-16.907,7.507
0.911,0.261,0.159,11.78,-13.855,9.888
0.911,0.252,0.097,15.259,-5.31,9.094
0.919,0.242,0.058,17.944,6.592,7.141
0.943,0.226,0.049,19.653,20.874,4.639
0.999,0.201,0.084,20.996,33.142,1.587
1.07,0.186,0.143,20.691,39.063,-0.244
1.088,0.189,0.196,18.494,36.133,-0.732
1.08,0.166,0.196,15.198,25.513,-1.282
1.057,0.175,0.163,12.085,13.855,-2.014
1.028,0.181,0.143,10.559,4.761,-3.418
0.98,0.174,0.029,9.521,-2.136,-5.371
0.972,0.24,-0.005,9.155,0.732,-5.066
0.999,0.162,0.044,7.08,8.85,1.282
1.008,0.111,0.075,7.996,12.085,0.427
1.022,0.171,0.054,8.667,10.437,-4.211
1.02,0.179,0.08,5.615,10.132,-4.089
1.039,0.182,0.142,2.686,8.362,-2.014
1.026,0.183,0.161,1.343,0.488,-0.183
1.006,0.198,0.141,1.282,-9.827,0.916
0.964,0.191,0.09,1.831,-17.7,3.357
0.911,0.182,0.072,1.892,-20.386,6.104
0.842,0.191,0.006,3.296,-17.578,6.592
0.849,0.15,0.051,5.371,-7.568,4.822
0.899,0.161,0.109,7.324,1.953,0.549
0.946,0.176,0.15,6.409,5.249,-0.61
0.951,0.146,0.169,3.601,3.967,1.343
0.951,0.132,0.165,1.465,-0.61,1.831
0.946,0.148,0.155,-0.427,-5.127,0.427
0.948,0.151,0.133,-2.014,-8.423,0.122
0.947,0.163,0.113,-3.601,-9.705,0.854
0.912,0.153,0.085,-5.066,-7.935,3.113
0.901,0.157,0.099,-5.798,-2.38,4.395
0.922,0.17,0.157,-5.676,3.906,5.127
0.953,0.181,0.206,-5.737,6.348,5.554
0.962,0.189,0.217,-5.493,3.357,7.019
-0.067,0.139,2.669,78.918,88.257,-39.307
-0.064,0.148,2.899,81.97,116.76,-47.607
-0.042,0.0,3.052,80.994,149.719,-39.246
0.047,-0.094,3.174,69.763,185.913,-23.437
0.117,-0.083,3.298,54.504,223.389,-8.85
0.136,-0.028,3.27,42.908,257.69,-0.977
0.242,-0.037,3.194,34.424,290.649,8.24
0.376,-0.028,3.043,23.315,326.172,14.648
0.462,0.048,2.835,8.85,361.633,15.808
0.508,0.137,2.614,-6.958,391.602,17.822
0.537,0.161,2.456,-19.592,409.119,21.729
0.473,0.145,2.377,-29.663,405.64,22.034
0.317,0.132,2.149,-36.194,377.869,12.878
0.113,0.185,1.684,-39.795,339.6,-1.282
-0.048,0.163,1.18,-42.603,313.965,-10.254
-0.162,0.064,0.78,-39.063,308.289,-16.479
-0.204,-0.027,0.595,-22.4,314.331,-25.391
-0.144,-0.049,0.387,3.357,312.988,-36.926
-0.082,-0.074,0.082,24.475,298.279,-44.8
-0.182,-0.02,-0.145,51.575,282.227,-53.162
-0.041,0.007,-0.305,83.191,272.461,-47.363
0.213,-0.099,-0.54,103.455,261.597,-30.762
0.312,-0.325,-0.673,114.38,252.502,-9.216
0.419,-0.564,-0.605,108.276,245.239,13.489
0.469,-0.709,-0.642,98.083,224.365,23.437
0.517,-0.695,-0.754,85.022,197.876,22.888
0.65,-0.641,-0.654,63.904,177.612,23.926
0.75,-0.572,-0.475,40.405,151.123,28.198
0.621,-0.44,-0.594,18.86,106.75,32.898
0.461,-0.328,-0.72,3.235,69.58,38.269
0.446,-0.288,-0.58,-4.15,51.453,41.077
0.45,-0.234,-0.461,-5.005,29.907,37.354
0.387,-0.149,-0.535,-3.784,3.54,31.86
0.281,-0.118,-0.607,-3.845,-9.705,29.724
0.191,-0.135,-0.587,-4.211,-6.531,29.724
0.182,-0.177,-0.447,-1.892,3.601,25.696
0.207,-0.198,-0.294,5.005,6.592,14.282
0.207,-0.169,-0.256,14.038,-1.953,1.282
0.119,-0.096,-0.417,21.362,-10.254,-4.7
0.091,-0.075,-0.441,25.269,-0.244,0.61
0.24,-0.161,-0.221,29.846,18.433,9.827
0.376,-0.214,-0.099,35.217,18.311,13.062
0.448,-0.216,-0.052,37.354,2.93,15.381
0.447,-0.206,-0.076,34.363,-14.832,21.179
0.45,-0.223,-0.092,27.344,-26.672,30.029
0.462,-0.25,-0.103,17.639,-31.677,38.513
0.458,-0.243,-0.125,5.676,-30.884,43.762
0.475,-0.224,-0.091,-8.484,-22.888,46.631
0.499,-0.204,-0.023,-24.536,-13.062,46.082
0.521,-0.172,0.033,-39.734,-6.287,41.565
0.54,-0.123,0.065,-53.772,-3.235,33.02
0.565,-0.063,0.082,-66.04,-1.282,22.583
0.599,0.007,0.087,-74.768,1.77,12.634
0.645,0.07,0.096,-79.163,6.104,4.944
0.687,0.12,0.1,-79.895,11.292,0.793
0.705,0.156,0.094,-77.332,16.663,0.305
0.721,0.177,0.097,-71.838,22.705,2.441
0.759,0.173,0.129,-64.087,27.954,5.493
0.806,0.158,0.175,-55.908,30.457,8.789
0.849,0.154,0.212,-48.584,28.809,12.085
0.882,0.114,0.2,-42.48,23.682,16.113
0.925,-0.005,0.257,-39.246,18.25,17.09
0.997,0.016,0.312,-36.194,7.202,10.193
0.956,0.047,0.22,-37.537,-9.338,6.531
0.935,0.07,0.161,-40.222,-17.639,6.165
0.87,0.056,0.113,-43.945,-16.968,8.972
0.84,0.064,0.069,-45.593,-9.46,8.728
0.825,0.097,0.07,-45.837,4.15,7.996
0.811,0.102,0.053,-45.288,21.667,7.751
0.8,-0.001,0.057,-42.847,41.26,4.761
0.961,0.085,0.285,-38.086,59.509,-4.7
1.093,0.144,0.418,-36.133,58.044,-5.798
1.063,0.121,0.332,-38.574,40.588,-0.427
1.164,0.096,0.466,-39.673,27.527,6.897
1.09,0.094,0.347,-40.344,4.456,12.329
1.066,0.1,0.244,-39.063,-13.611,15.259
1.044,0.119,0.185,-35.828,-19.592,16.907
1.029,0.139,0.154,-31.738,-18.738,18.127
1.026,0.15,0.145,-25.146,-14.038,18.799
1.034,0.151,0.175,-17.029,-8.911,18.372
1.027,0.169,0.199,-8.057,-5.981,16.541
1.013,0.194,0.196,0.488,-5.371,14.832
0.993,0.193,0.186,7.751,-4.211,14.709
0.985,0.158,0.181,12.634,-1.099,14.709
1.003,0.131,0.19,15.991,3.54,13.306
1.044,0.125,0.218,17.151,7.324,11.23
1.066,0.119,0.225,16.418,7.568,9.216
1.07,0.108,0.188,14.282,4.517,7.69
1.072,0.106,0.163,11.597,1.953,6.897
1.055,0.1,0.158,9.155,0.488,6.897
1.047,0.091,0.172,8.606,-2.502,5.981
1.043,0.097,0.168,9.155,-6.897,3.662
1.024,0.113,0.14,8.545,-11.353,2.502
0.999,0.111,0.119,7.141,-12.695,3.784
0.986,0.108,0.109,6.287,-11.536,4.578
0.975,0.124,0.1,5.92,-8.789,4.761
0.942,0.141,0.073,5.127,-5.188,5.31
0.913,0.133,0.054,4.333,1.038,5.371
0.916,0.124,0.06,4.028,9.766,3.357
0.942,0.135,0.076,3.967,17.639,0.61
0.964,0.148,0.078,3.235,23.254,-0.793
0.968,0.152,0.075,1.709,27.1,0.488
0.98,0.135,0.08,0.793,29.968,2.563
0.998,0.117,0.102,1.038,30.762,3.906
1.004,0.114,0.118,1.892,27.71,3.296
1.005,0.125,0.121,1.831,21.79,2.563
1.005,0.136,0.117,0.732,14.771,2.869
0.992,0.143,0.105,-0.977,8.179,4.639
0.949,0.125,0.059,-1.953,2.38,6.226
0.962,0.097,0.08,-2.197,0.549,4.7
0.973,0.121,0.095,-2.014,-0.916,1.282
0.954,0.157,0.062,-2.991,-3.845,0.183
0.958,0.162,0.072,-4.639,-3.845,0.793
0.966,0.152,0.093,-4.944,-3.662,2.075
0.969,0.144,0.096,-3.662,-5.127,1.343
0.986,0.152,0.111,-2.93,-7.629,-0.183
0.996,0.161,0.125,-3.235,-11.169,0.0
0.983,0.151,0.102,-3.357,-15.137,0.916
0.972,0.141,0.095,-2.686,-17.151,0.916
0.361,-0.341,2.848,106.018,144.836,5.249
0.442,-0.406,3.202,88.318,166.26,8.362
0.43,-0.461,3.437,65.369,187.134,18.616
0.495,-0.69,3.487,48.584,210.51,57.068
0.6,-0.769,3.531,11.169,245.178,93.323
0.654,-0.669,3.434,-23.071,281.372,100.83
0.752,-0.539,3.336,-37.598,312.744,92.163
0.853,-0.281,3.223,-37.17,334.29,71.411
0.788,-0.036,3.022,-25.635,346.313,54.26
0.647,0.04,2.766,-9.46,351.624,49.866
0.541,-0.038,2.494,6.531,347.351,51.208
0.417,-0.15,2.224,19.226,330.078,52.002
0.256,-0.195,1.88,31.677,305.237,48.157
0.075,-0.224,1.486,41.931,283.875,41.565
-0.048,-0.293,1.176,44.983,273.315,37.598
-0.069,-0.319,0.949,42.236,265.259,37.781
-0.136,-0.297,0.762,37.292,252.441,42.542
-0.25,-0.343,0.589,31.982,236.328,50.842
-0.383,-0.429,0.231,26.611,219.482,53.04
-0.426,-0.443,-0.072,24.963,215.21,44.8
-0.364,-0.382,-0.239,20.63,226.013,37.415
-0.246,-0.297,-0.358,13.794,241.028,36.865
-0.059,-0.294,-0.359,6.653,253.235,42.053
0.06,-0.298,-0.464,0.916,254.944,43.152
0.21,-0.267,-0.496,-3.418,253.113,41.382
0.402,-0.244,-0.278,-6.287,245.789,38.879
0.459,-0.177,-0.278,-8.85,213.135,35.278
0.422,-0.11,-0.412,-12.878,171.387,39.307
0.443,-0.132,-0.346,-16.418,140.808,48.584
0.451,-0.165,-0.292,-17.09,108.093,52.063
0.343,-0.131,-0.44,-16.968,72.021,51.208
0.283,-0.089,-0.448,-17.456,51.758,52.246
0.27,-0.068,-0.398,-15.747,43.396,55.298
0.287,-0.043,-0.344,-12.451,35.156,58.35
0.274,-0.03,-0.352,-7.629,24.658,61.707
0.163,-0.031,-0.535,-2.747,16.602,63.416
0.089,-0.044,-0.653,3.052,27.588,63.049
0.112,-0.07,-0.562,8.789,55.42,58.594
0.241,-0.091,-0.343,15.747,78.064,47.424
0.382,-0.08,-0.207,20.935,80.139,34.241
0.446,-0.051,-0.182,21.179,67.383,26.062
0.474,-0.046,-0.198,17.883,51.636,24.109
0.516,-0.073,-0.183,12.573,38.818,25.33
0.551,-0.086,-0.167,5.981,26.428,25.757
0.545,-0.065,-0.187,-1.099,13.367,25.879
0.525,-0.025,-0.209,-8.057,4.639,26.917
0.525,0.009,-0.19,-14.771,1.953,28.198
0.555,0.015,-0.144,-21.24,1.953,28.931
0.58,0.026,-0.093,-27.466,0.427,28.076
0.575,0.066,-0.076,-31.921,-2.991,25.757
0.581,0.105,-0.087,-34.485,-5.859,22.827
0.594,0.149,-0.08,-36.133,-6.47,20.508
0.627,0.193,-0.078,-35.889,-6.165,19.348
0.673,0.235,-0.088,-33.508,-5.676,18.921
0.709,0.271,-0.096,-30.212,-4.211,19.714
0.747,0.285,-0.097,-26.672,-2.38,22.034
0.79,0.277,-0.091,-23.071,-0.244,24.414
0.825,0.265,-0.084,-19.592,1.404,25.574
0.851,0.258,-0.068,-16.968,2.136,25.635
0.879,0.249,-0.039,-15.503,1.282,24.719
0.887,0.252,-0.027,-14.893,-2.319,21.667
0.883,0.246,-0.036,-15.137,-6.531,19.043
0.896,0.209,0.007,-16.357,-9.338,16.846
0.911,0.203,0.054,-18.25,-13.55,12.756
0.861,0.201,-0.004,-21.484,-20.386,8.789
0.816,0.217,-0.093,-24.353,-20.264,4.7
0.784,0.231,-0.122,-25.94,-8.606,1.099
0.803,0.263,-0.059,-26.611,7.874,-2.014
0.883,0.286,0.06,-26.123,19.47,-2.93
0.918,0.269,0.088,-25.085,20.02,-2.136
0.972,0.277,0.128,-23.071,16.296,-0.488
0.967,0.279,0.112,-20.569,9.766,2.502
0.936,0.276,0.06,-18.311,3.174,5.249
0.932,0.281,0.045,-16.113,1.953,6.836
0.848,0.27,-0.089,-15.259,4.822,8.057
0.89,0.27,-0.053,-15.808,19.043,8.118
1.02,0.239,0.198,-14.832,32.532,5.92
0.989,0.235,0.135,-12.756,21.79,-0.549
0.971,0.263,0.068,-10.437,9.644,-7.507
0.955,0.298,0.019,-7.507,6.47,-11.169
1.041,0.322,0.102,-4.761,7.568,-9.155
1.086,0.289,0.165,-1.282,2.747,-3.479
1.123,0.245,0.199,2.625,-11.841,0.854
1.049,0.2,0.075,7.507,-30.212,1.77
0.922,0.202,-0.133,11.047,-37.72,-0.122
0.771,0.144,-0.288,11.963,-21.912,0.0
0.908,0.136,-0.026,11.963,10.437,-3.906
1.141,0.238,0.323,11.719,24.78,-6.592
0.981,0.153,0.123,6.958,3.357,-1.038
0.942,0.038,0.029,5.615,-8.972,-2.258
0.991,0.088,0.127,8.301,-7.263,-11.719
1.045,0.197,0.147,4.822,-13.733,-16.113
1.034,0.22,0.067,-0.793,-22.278,-10.193
0.952,0.172,-0.002,-5.615,-23.682,0.305
0.944,0.136,0.008,-4.883,-17.334,3.723
0.943,0.166,0.016,-2.136,-10.62,0.488
0.94,0.198,0.005,-0.61,-4.822,-0.916
0.92,0.142,-0.008,-0.793,2.625,1.282
0.859,0.061,-0.038,-0.305,13.184,-0.732
0.974,0.114,0.086,1.343,24.17,-8.545
1.055,0.197,0.184,-1.526,24.17,-10.437
1.027,0.22,0.078,-7.202,13.611,-3.479
0.984,0.154,0.023,-12.451,8.301,5.371
0.969,0.148,0.042,-11.658,8.118,4.395
0.982,0.229,0.018,-8.301,5.92,-1.221
0.978,0.262,0.018,-6.653,5.615,-2.258
1.008,0.25,0.085,-5.859,6.409,1.221
0.996,0.23,0.093,-4.517,1.77,3.906
0.974,0.213,0.053,-2.319,-5.005,4.272
0.943,0.205,0.0,0.366,-7.751,2.991
0.928,0.191,-0.024,1.648,-5.371,1.892
0.929,0.18,-0.012,1.892,0.061,0.793
0.925,0.176,-0.007,1.831,4.883,-0.183
0.916,0.17,-0.012,1.465,8.789,-0.916
0.905,0.16,-0.028,1.282,12.817,-0.732
0.899,0.15,-0.037,0.549,17.7,-0.122
0.919,0.145,-0.012,-0.183,22.888,0.671
0.978,0.151,0.064,-0.488,24.719,0.366
1.026,0.17,0.125,-1.404,18.188,-0.61
0.308,-0.299,2.353,66.772,158.142,-7.507
0.484,-0.227,2.469,51.025,167.358,0.854
0.572,-0.186,2.515,43.701,170.776,20.264
0.582,-0.273,2.499,41.138,168.213,46.143
0.658,-0.336,2.526,29.114,169.983,71.838
0.755,-0.219,2.623,7.568,181.091,89.6
0.799,-0.047,2.706,-10.986,193.359,103.394
0.805,-0.04,2.834,-20.691,199.463,112.549
0.848,-0.128,2.978,-23.56,191.956,108.032
0.824,-0.174,2.926,-21.545,165.466,93.994
0.655,-0.141,2.568,-19.348,136.292,78.796
0.364,-0.067,2.152,-20.569,130.981,63.965
0.18,-0.024,1.866,-24.963,158.691,51.086
0.134,-0.029,1.676,-29.846,205.444,39.978
0.109,-0.078,1.534,-34.851,252.319,27.71
0.091,-0.121,1.439,-39.001,290.344,13.977
0.14,-0.095,1.304,-41.443,317.932,-0.854
0.181,-0.06,1.152,-43.64,335.205,-8.911
0.216,-0.091,1.05,-46.814,345.886,-9.338
0.27,-0.12,0.906,-50.415,347.961,-7.507
0.287,-0.106,0.74,-52.917,344.727,-4.517
0.326,-0.085,0.667,-52.246,341.064,-3.235
0.376,-0.104,0.551,-49.194,328.674,-5.127
0.358,-0.139,0.394,-42.114,308.716,-12.146
0.31,-0.118,0.201,-27.893,288.208,-24.414
0.266,-0.161,0.037,-7.385,272.217,-36.926
0.294,-0.158,-0.062,17.334,259.46,-52.185
0.401,-0.131,-0.089,40.833,245.361,-60.425
0.441,-0.164,-0.07,54.138,226.013,-56.091
0.361,-0.215,-0.163,56.946,200.317,-45.593
0.352,-0.291,-0.167,51.697,177.429,-30.396
0.362,-0.349,-0.096,44.8,153.259,-19.226
0.301,-0.328,-0.144,36.987,121.948,-12.634
0.207,-0.272,-0.235,27.71,94.849,-5.005
0.14,-0.179,-0.31,21.423,80.017,4.333
0.145,-0.133,-0.31,21.667,73.853,16.479
0.195,-0.095,-0.268,28.748,68.115,24.353
0.235,-0.044,-0.294,42.114,58.35,28.015
0.174,-0.026,-0.458,55.359,50.232,32.104
0.124,-0.031,-0.522,67.139,56.152,35.522
0.197,-0.072,-0.398,79.041,70.618,36.316
0.311,-0.132,-0.225,89.294,73.914,30.701
0.375,-0.187,-0.183,95.154,58.655,22.339
0.392,-0.226,-0.189,95.642,37.17,14.282
0.389,-0.26,-0.198,90.637,18.494,7.324
0.373,-0.284,-0.219,80.688,4.761,2.686
0.353,-0.295,-0.215,66.589,-2.93,0.977
0.357,-0.297,-0.16,50.232,-5.92,1.648
0.355,-0.283,-0.137,34.302,-9.216,2.686
0.342,-0.239,-0.144,18.188,-11.108,3.601
0.322,-0.176,-0.175,3.601,-9.521,5.432
0.358,-0.126,-0.178,-6.775,-3.601,7.202
0.428,-0.088,-0.134,-14.282,4.639,8.728
0.496,-0.051,-0.095,-20.813,9.521,11.047
0.542,-0.009,-0.099,-26.428,9.705,12.512
0.582,0.033,-0.123,-29.968,9.46,13.306
0.627,0.064,-0.121,-32.593,10.498,14.465
0.669,0.096,-0.089,-35.095,11.353,16.357
0.706,0.12,-0.049,-36.743,8.362,17.395
0.737,0.136,-0.049,-36.682,0.732,18.005
0.766,0.148,-0.064,-35.217,-7.629,18.494
0.793,0.162,-0.066,-32.349,-14.709,19.043
0.806,0.173,-0.077,-28.198,-20.813,19.531
0.801,0.178,-0.099,-23.499,-25.757,20.325
0.79,0.18,-0.128,-18.25,-27.832,21.24
0.779,0.175,-0.164,-12.939,-25.757,21.301
0.787,0.165,-0.167,-9.521,-18.616,20.996
0.819,0.144,-0.131,-7.874,-8.789,19.897
0.855,0.126,-0.083,-7.874,-1.709,16.663
0.902,0.119,-0.036,-9.338,1.648,12.085
0.927,0.128,-0.047,-12.024,0.793,7.629
0.94,0.133,-0.074,-16.296,0.549,5.554
0.955,0.133,-0.075,-20.813,2.625,5.676
0.988,0.137,-0.041,-24.536,5.432,5.981
1.021,0.138,0.015,-27.222,4.822,5.859
1.016,0.142,0.002,-28.32,-0.977,5.249
0.961,0.148,-0.088,-27.649,-6.042,4.028
0.875,0.141,-0.215,-26.001,-1.648,3.479
0.88,0.126,-0.182,-23.01,16.663,3.052
1.02,0.12,0.044,-18.677,34.119,1.709
1.068,0.112,0.096,-15.381,30.884,1.892
1.003,0.113,-0.033,-14.282,18.86,4.883
1.047,0.048,0.042,-13.672,16.968,9.583
1.134,-0.003,0.203,-11.353,11.108,8.423
1.08,0.012,0.081,-10.193,-10.62,3.906
1.062,0.042,0.006,-12.024,-23.987,3.113
1.078,0.021,0.075,-14.343,-25.33,5.615
1.075,0.002,0.1,-16.052,-29.907,6.897
1.02,0.031,0.013,-16.418,-36.743,5.92
0.978,0.06,-0.031,-16.785,-34.973,5.92
0.999,0.052,0.065,-16.113,-25.33,7.324
1.001,0.065,0.109,-14.282,-21.362,6.775
1.012,0.073,0.152,-12.817,-22.156,6.348
1.03,0.062,0.198,-11.719,-25.269,6.348
1.071,0.09,0.215,-10.986,-31.982,6.897
1.037,0.093,0.153,-10.437,-39.307,10.193
0.997,0.081,0.089,-9.521,-41.504,12.634
0.972,0.077,0.079,-6.897,-36.499,12.146
0.962,0.093,0.072,-4.028,-29.053,9.155
0.941,0.091,0.052,-2.747,-19.836,7.568
0.938,0.077,0.063,-2.563,-8.057,6.775
0.963,0.064,0.119,-3.601,2.686,5.554
0.989,0.072,0.157,-4.7,8.24,3.235
1.005,0.09,0.179,-6.042,8.24,1.587
0.998,0.105,0.168,-7.874,5.554,0.977
0.99,0.117,0.144,-10.071,3.052,0.549
0.993,0.15,0.14,-10.986,2.136,-0.183
0.981,0.184,0.131,-10.864,1.831,0.305
0.986,0.187,0.128,-9.583,1.038,1.892
0.987,0.167,0.115,-6.47,-0.122,2.747
0.967,0.158,0.087,-2.686,-0.427,1.831
0.969,0.156,0.08,1.526,0.732,0.122
0.975,0.152,0.089,4.822,2.563,-0.671
0.98,0.14,0.096,6.409,3.845,0.244
0.98,0.125,0.098,7.202,4.15,1.831
0.973,0.114,0.094,6.226,3.906,3.174
0.965,0.115,0.096,4.578,3.418,3.662
0.954,0.12,0.078,3.54,2.869,2.869
0.952,0.127,0.065,2.258,4.089,1.465
0.332,-0.191,2.703,51.514,59.692,18.127
0.353,-0.242,2.917,17.09,77.82,30.518
0.391,-0.296,3.06,-16.235,102.478,43.762
0.405,-0.247,3.153,-46.753,131.592,57.068
0.368,-0.109,3.276,-63.965,159.546,57.19
0.359,0.052,3.381,-67.261,184.204,42.725
0.403,0.214,3.359,-60.608,211.731,24.353
0.457,0.268,3.244,-51.453,245.972,12.756
0.435,0.213,3.099,-43.274,278.748,5.737
0.354,0.163,2.921,-34.363,308.289,-2.93
0.271,0.109,2.689,-25.574,335.144,-13.062
0.212,0.026,2.44,-18.982,357.788,-22.095
0.168,-0.052,2.21,-14.832,375.427,-27.344
0.125,-0.14,2.001,-12.878,388.306,-30.212
0.035,-0.226,1.777,-13.794,397.522,-34.363
-0.064,-0.31,1.545,-14.587,405.457,-36.743
-0.167,-0.382,1.32,-13.062,411.987,-39.001
-0.241,-0.381,1.073,-7.202,417.175,-44.067
-0.331,-0.351,0.815,3.662,419.556,-47.18
-0.337,-0.342,0.651,16.357,420.654,-45.166
-0.29,-0.35,0.507,30.884,416.626,-39.734
-0.271,-0.396,0.357,47.424,407.41,-33.203
-0.274,-0.45,0.223,63.171,397.095,-27.344
-0.172,-0.507,0.158,77.698,386.536,-24.963
-0.117,-0.483,0.013,90.21,370.544,-26.917
-0.045,-0.491,-0.055,95.764,355.835,-24.17
-0.01,-0.443,-0.095,96.985,337.28,-20.386
-0.045,-0.404,-0.189,93.567,312.805,-10.437
-0.079,-0.38,-0.251,81.97,293.762,1.099
-0.016,-0.368,-0.253,68.604,283.691,7.08
0.085,-0.336,-0.218,54.993,272.339,10.376
0.159,-0.27,-0.182,40.222,257.385,14.221
0.149,-0.177,-0.189,32.959,238.892,21.973
0.132,-0.089,-0.12,36.377,208.74,37.109
0.151,-0.051,-0.003,44.373,155.029,56.03
0.175,-0.097,0.03,41.992,81.848,75.378
0.019,-0.148,-0.306,33.447,5.249,84.717
-0.049,-0.108,-0.665,25.818,-38.33,84.595
0.13,0.048,-0.568,14.893,-41.87,83.252
0.243,0.038,-0.332,1.282,-43.701,91.187
0.3,-0.106,-0.308,-5.31,-68.604,95.215
0.392,-0.154,-0.414,-1.16,-99.915,81.604
0.457,-0.044,-0.457,4.517,-123.901,61.462
0.466,0.05,-0.459,10.742,-142.7,51.208
0.451,0.08,-0.559,14.709,-159.363,51.819
0.327,0.042,-0.687,18.555,-162.598,50.171
0.198,0.002,-0.725,21.606,-145.081,48.401
0.151,0.037,-0.668,23.01,-111.145,48.767
0.175,0.079,-0.577,24.536,-73.792,46.143
0.258,0.065,-0.508,23.254,-41.992,42.542
0.325,0.04,-0.463,18.005,-15.076,41.016
0.376,0.028,-0.384,9.277,7.141,36.316
0.474,0.047,-0.285,-1.831,21.729,27.832
0.584,0.108,-0.215,-12.085,26.123,20.02
0.675,0.172,-0.198,-20.264,22.156,15.137
0.73,0.217,-0.217,-25.818,14.404,12.939
0.76,0.25,-0.242,-27.466,5.92,13.184
0.786,0.273,-0.262,-26.062,-0.549,14.771
0.802,0.273,-0.265,-23.621,-4.822,16.541
0.804,0.259,-0.263,-20.935,-7.629,17.639
0.803,0.255,-0.261,-18.433,-8.606,17.7
0.811,0.255,-0.236,-17.212,-8.423,17.151
0.837,0.251,-0.191,-16.968,-8.545,17.517
0.841,0.249,-0.19,-17.09,-10.742,17.456
0.847,0.271,-0.189,-17.578,-12.146,17.029
0.878,0.287,-0.162,-17.334,-11.841,17.334
0.903,0.284,-0.156,-16.602,-13.184,17.212
0.906,0.287,-0.206,-15.564,-14.771,16.113
0.911,0.289,-0.21,-14.832,-11.108,15.564
0.93,0.281,-0.184,-14.893,-5.249,14.771
0.915,0.277,-0.216,-15.686,-0.671,13.245
0.884,0.283,-0.241,-17.334,7.446,12.329
0.903,0.284,-0.197,-19.226,19.348,11.536
1.0,0.266,-0.046,-19.47,28.076,9.277
0.981,0.258,-0.09,-18.311,23.987,5.554
0.922,0.255,-0.163,-18.127,21.729,2.563
0.969,0.227,-0.054,-17.944,27.588,-0.122
1.007,0.216,-0.025,-16.968,25.269,-4.272
1.164,0.286,0.143,-16.052,14.954,-6.897
1.007,0.281,-0.188,-15.381,-4.15,-2.014
0.901,0.232,-0.222,-13.855,-1.343,1.831
1.059,0.212,-0.021,-8.728,10.986,0.305
0.908,0.185,-0.213,-7.812,6.348,-2.869
1.137,0.259,0.124,-7.385,11.902,-4.578
1.233,0.181,0.236,-8.423,-2.502,-2.441
1.279,0.177,0.271,-8.24,-37.292,-3.235
1.287,0.206,0.209,-6.775,-76.05,-2.563
1.117,0.186,-0.047,-5.676,-109.375,-1.465
0.981,0.238,-0.224,-3.479,-116.76,-1.16
0.876,0.216,-0.287,-3.418,-98.206,4.517
0.869,0.139,-0.17,-4.211,-67.2,6.287
0.978,0.219,-0.022,-2.38,-42.358,3.357
0.944,0.133,0.034,-2.502,-31.677,5.31
0.948,0.129,0.1,1.648,-27.161,-2.319
0.94,0.218,0.07,5.554,-27.832,-7.874
0.929,0.231,0.082,6.165,-25.33,-6.104
0.911,0.167,0.099,6.897,-20.996,-2.197
0.916,0.142,0.077,9.216,-18.066,-2.441
0.881,0.172,-0.006,9.705,-13.611,-3.296
0.845,0.126,-0.06,7.629,-1.282,-2.197
0.91,0.114,0.069,5.859,16.235,-4.333
1.023,0.169,0.17,4.395,21.79,-5.92
0.998,0.154,0.124,1.343,14.343,-4.395
0.996,0.155,0.11,0.61,6.897,-3.235
0.996,0.179,0.074,1.221,0.61,-2.38
0.952,0.185,-0.021,2.38,-3.601,-1.343
0.904,0.173,-0.091,3.784,0.671,0.244
0.911,0.162,-0.059,5.31,12.207,-0.305
0.987,0.158,0.055,6.47,21.362,-2.625
1.056,0.17,0.134,6.836,18.311,-5.005
1.02,0.188,0.053,5.92,5.737,-4.944
0.974,0.182,-0.031,4.578,-2.258,-2.563
0.949,0.167,-0.062,3.723,-0.916,-0.977
0.944,0.166,-0.069,4.089,4.089,-2.075
0.943,0.172,-0.061,3.845,10.254,-3.113
0.959,0.174,-0.024,2.93,15.686,-3.052
0.98,0.18,0.012,2.197,17.212,-2.38
0.999,0.194,0.026,2.014,14.648,-0.732
1.004,0.208,0.035,2.014,9.094,2.075
0.131,-0.668,2.318,105.896,98.816,25.757
0.177,-0.832,2.52,77.026,123.474,24.719
0.335,-0.846,2.708,40.1,149.841,29.114
0.544,-0.684,2.841,5.615,172.363,42.542
0.666,-0.487,2.954,-21.362,188.721,61.218
0.721,-0.326,3.003,-35.278,201.782,80.688
0.729,-0.221,3.031,-39.124,214.905,89.844
0.776,-0.157,3.008,-36.255,224.121,89.905
0.771,-0.057,2.935,-26.367,227.844,85.571
0.618,0.051,2.807,-15.747,232.056,85.632
0.451,-0.005,2.665,-9.033,235.596,94.604
0.352,-0.221,2.493,-4.333,235.962,101.807
0.269,-0.391,2.203,-4.761,232.544,96.863
0.172,-0.432,1.81,-9.094,231.323,79.529
0.037,-0.454,1.455,-14.709,241.638,60.303
-0.075,-0.467,1.239,-21.79,264.954,40.771
-0.088,-0.426,1.089,-26.611,288.574,23.926
-0.033,-0.397,0.919,-29.358,304.321,15.869
0.036,-0.389,0.797,-32.837,314.453,14.893
0.069,-0.361,0.648,-36.987,319.58,19.348
0.079,-0.338,0.478,-41.565,321.655,28.137
0.129,-0.335,0.425,-44.495,325.012,33.813
0.194,-0.33,0.404,-41.87,318.726,32.104
0.155,-0.321,0.255,-35.217,301.27,24.292
0.158,-0.266,0.135,-25.818,286.377,11.475
0.188,-0.158,0.046,-11.475,272.705,0.122
0.227,-0.073,-0.091,4.639,256.775,-3.479
0.321,-0.064,-0.103,20.386,241.943,-0.977
0.349,-0.103,-0.092,35.217,220.886,4.333
0.326,-0.134,-0.196,42.297,190.674,10.315
0.342,-0.168,-0.25,41.748,161.682,17.639
0.353,-0.23,-0.302,36.804,132.935,23.437
0.348,-0.283,-0.352,29.724,105.835,25.146
0.312,-0.286,-0.431,22.278,83.13,23.499
0.26,-0.224,-0.505,15.198,69.702,20.264
0.296,-0.156,-0.41,10.62,65.369,18.982
0.343,-0.108,-0.256,8.667,56.641,21.118
0.33,-0.058,-0.235,10.01,35.767,23.987
0.22,-0.005,-0.338,12.817,15.503,30.212
0.14,-0.005,-0.4,16.846,10.986,37.415
0.146,-0.049,-0.36,22.217,18.127,40.833
0.204,-0.102,-0.297,27.71,25.574,38.391
0.256,-0.124,-0.256,30.701,28.442,33.142
0.297,-0.113,-0.203,29.541,29.907,27.344
0.354,-0.109,-0.16,25.33,28.992,23.315
0.413,-0.114,-0.125,18.738,25.818,21.667
0.441,-0.119,-0.142,10.986,19.836,21.24
0.471,-0.112,-0.149,2.136,15.747,20.996
0.528,-0.099,-0.076,-6.897,13.489,21.301
0.548,-0.077,-0.075,-15.93,6.226,20.142
0.529,-0.034,-0.13,-23.987,-1.526,17.456
0.533,0.01,-0.175,-29.724,-2.869,15.015
0.589,0.046,-0.157,-33.081,2.502,13.123
0.647,0.08,-0.11,-33.875,7.568,12.024
0.678,0.105,-0.097,-33.997,7.141,11.475
0.693,0.124,-0.099,-33.203,4.211,11.658
0.728,0.135,-0.07,-31.677,2.563,12.878
0.777,0.133,-0.045,-29.48,-0.305,14.771
0.82,0.136,-0.024,-27.405,-4.578,16.235
0.854,0.146,-0.002,-24.231,-10.01,17.456
0.89,0.144,-0.0,-21.301,-16.357,18.799
0.895,0.135,-0.007,-19.348,-21.545,20.813
0.882,0.12,-0.016,-18.555,-23.437,22.278
0.862,0.104,-0.017,-18.066,-22.156,22.278
0.839,0.107,-0.011,-18.738,-18.616,20.325
0.826,0.121,0.004,-20.325,-13.916,18.494
0.834,0.129,0.014,-22.827,-8.545,17.212
0.842,0.117,0.027,-26.306,-2.319,16.479
0.885,0.09,0.093,-30.029,3.845,14.893
0.926,0.1,0.114,-32.654,5.31,10.803
0.914,0.07,0.06,-35.4,3.357,6.897
0.864,0.11,-0.04,-36.926,6.714,1.16
0.9,0.169,0.025,-38.513,19.592,0.183
0.97,0.193,0.183,-39.185,27.893,1.831
0.932,0.2,0.11,-38.025,20.203,4.395
0.872,0.206,-0.033,-35.522,15.564,6.287
0.866,0.211,-0.055,-31.067,24.658,5.981
0.953,0.2,0.048,-24.231,36.743,4.761
1.04,0.211,0.185,-16.541,38.33,1.77
1.094,0.279,0.221,-10.437,23.682,1.77
1.036,0.264,0.116,-7.69,4.089,9.888
0.923,0.168,-0.027,-5.005,-5.249,16.418
0.892,0.129,-0.062,-0.732,-0.793,13.367
0.94,0.152,0.027,1.953,9.033,6.409
1.005,0.182,0.127,2.38,11.536,0.122
1.06,0.208,0.158,2.075,3.601,-2.075
1.039,0.208,0.096,2.075,-8.667,-0.244
0.968,0.184,-0.033,3.601,-16.724,2.869
0.957,0.144,-0.048,7.263,-13.55,3.479
0.985,0.13,0.043,11.169,-6.409,0.244
0.985,0.133,0.051,12.939,-7.141,-2.991
0.983,0.158,0.036,11.536,-9.033,-4.15
0.986,0.123,0.073,8.057,-7.935,-1.038
1.03,0.089,0.174,5.127,-9.705,-0.366
1.056,0.116,0.179,3.235,-21.362,-1.77
1.016,0.157,0.077,0.61,-34.912,-0.854
0.949,0.155,-0.034,-1.831,-38.086,3.54
0.91,0.123,-0.08,-2.93,-28.198,6.836
0.904,0.1,-0.061,-3.418,-11.169,6.226
0.924,0.106,-0.01,-4.272,4.822,1.16
0.939,0.076,0.03,-5.371,17.029,-3.662
0.886,0.032,-0.018,-6.714,26.428,-11.047
1.023,0.143,0.146,-7.385,37.109,-19.714
1.085,0.218,0.283,-11.169,34.119,-17.151
1.071,0.224,0.207,-14.954,15.259,-7.751
1.003,0.123,0.094,-15.686,-0.366,2.014
0.976,0.093,0.069,-11.475,-5.798,1.343
0.988,0.18,0.054,-5.615,-8.484,-3.845
0.945,0.219,-0.029,-3.174,-8.301,-3.662
0.937,0.169,-0.008,-1.953,0.305,1.953
0.959,0.131,0.055,0.183,9.399,4.7
0.994,0.133,0.091,2.747,10.498,3.418
0.982,0.14,0.069,3.54,6.958,3.052
0.995,0.142,0.054,2.075,4.333,3.967
0.987,0.14,0.058,-0.305,3.479,5.493
0.973,0.136,0.039,-2.075,2.258,6.226
0.963,0.14,0.026,-3.601,2.991,5.066
0.941,0.149,0.01,-4.7,5.249,3.052
0.922,0.162,-0.005,-4.883,9.583,1.038
0.094,-0.472,2.137,52.917,3.601,5.493
0.069,-0.359,2.252,32.349,14.587,21.057
0.026,-0.334,2.375,16.968,26.306,41.748
0.022,-0.427,2.47,1.831,43.152,65.002
0.02,-0.509,2.575,-15.259,65.613,81.848
0.083,-0.501,2.697,-34.668,90.332,83.862
0.222,-0.415,2.846,-52.673,112.183,75.928
0.304,-0.289,2.908,-64.27,127.014,62.927
0.265,-0.175,2.932,-67.2,142.212,53.65
0.141,-0.087,2.905,-63.416,162.415,48.828
0.024,-0.042,2.811,-56.702,188.904,44.373
-0.049,-0.032,2.66,-49.377,219.788,41.321
-0.075,-0.036,2.472,-39.612,251.16,37.109
-0.07,-0.071,2.267,-29.419,280.945,31.433
-0.042,-0.135,2.066,-21.912,308.228,25.208
-0.032,-0.197,1.852,-18.494,332.397,20.264
-0.016,-0.246,1.635,-20.081,352.112,17.212
-0.005,-0.316,1.411,-24.109,368.225,16.968
-0.003,-0.372,1.194,-27.771,380.493,14.465
0.011,-0.405,0.988,-32.715,389.832,12.024
0.02,-0.421,0.808,-40.649,398.193,12.634
0.031,-0.398,0.642,-47.791,403.381,12.329
0.039,-0.307,0.475,-48.645,404.236,9.338
0.06,-0.244,0.356,-41.626,402.222,5.371
0.058,-0.157,0.278,-26.672,399.231,-1.526
0.062,-0.121,0.217,-3.662,397.827,-5.92
0.073,-0.077,0.191,22.522,395.142,-9.277
0.108,-0.05,0.123,45.227,382.507,-7.935
0.198,-0.063,0.071,65.125,359.07,-2.38
0.318,-0.118,0.062,83.618,322.449,4.639
0.235,-0.151,-0.118,91.736,275.94,16.174
0.16,-0.185,-0.157,86.609,239.197,33.63
0.116,-0.249,-0.093,73.853,200.867,52.979
0.29,-0.301,-0.072,54.81,150.208,78.918
0.626,-0.336,-0.249,33.508,84.534,103.516
0.795,-0.238,-0.255,10.986,18.372,122.681
0.748,-0.337,-0.292,-7.202,-45.044,147.156
0.68,-0.448,-0.46,-26.306,-112.366,151.306
0.536,-0.398,-0.681,-45.654,-157.532,137.085
0.334,-0.25,-0.759,-62.317,-161.194,117.92
0.19,-0.105,-0.677,-72.571,-141.541,93.506
0.073,0.01,-0.619,-71.411,-116.821,66.65
-0.015,0.103,-0.611,-61.951,-87.341,43.091
-0.077,0.176,-0.568,-50.049,-50.476,23.987
-0.064,0.209,-0.464,-36.926,-10.437,10.376
-0.02,0.217,-0.363,-24.17,25.085,0.671
0.056,0.226,-0.247,-11.292,53.467,-5.615
0.21,0.208,-0.121,-0.427,71.655,-7.263
0.356,0.171,-0.057,8.728,76.172,-6.409
0.467,0.14,-0.069,15.259,70.129,-4.944
0.552,0.132,-0.1,19.287,60.547,-2.991
0.617,0.129,-0.106,20.081,49.927,-1.038
0.654,0.13,-0.107,17.761,36.56,1.099
0.649,0.134,-0.143,13.55,21.729,3.357
0.621,0.139,-0.192,7.996,9.827,3.662
0.602,0.15,-0.222,1.648,3.052,1.221
0.605,0.172,-0.235,-3.784,1.587,-3.357
0.624,0.204,-0.224,-8.179,3.906,-7.629
0.653,0.238,-0.183,-11.108,8.24,-10.742
0.683,0.267,-0.146,-11.719,12.146,-11.414
0.701,0.289,-0.129,-9.827,14.343,-10.437
0.708,0.3,-0.121,-6.592,16.418,-7.996
0.732,0.308,-0.079,-2.93,18.799,-5.066
0.77,0.305,-0.033,0.732,18.433,-1.648
0.791,0.285,-0.062,4.15,12.634,1.282
0.797,0.267,-0.104,6.653,8.057,2.869
0.824,0.242,-0.104,6.836,6.958,2.563
0.849,0.228,-0.125,5.798,6.714,1.648
0.886,0.225,-0.108,3.601,8.301,1.404
0.927,0.206,-0.077,-0.122,9.583,2.563
0.921,0.186,-0.098,-5.432,8.789,2.93
0.89,0.183,-0.122,-11.23,9.583,1.526
0.887,0.201,-0.093,-16.052,14.526,-2.319
0.905,0.232,-0.053,-19.348,19.226,-6.897
0.933,0.255,-0.01,-21.057,21.667,-9.277
0.941,0.257,0.005,-20.386,21.729,-9.521
0.886,0.255,-0.094,-17.578,21.362,-9.521
0.875,0.244,-0.123,-13.489,29.419,-9.155
0.938,0.235,0.007,-8.118,42.358,-9.033
0.964,0.21,0.025,-2.991,44.373,-9.033
0.875,0.163,-0.125,-0.916,42.786,-8.606
0.844,0.109,-0.162,-0.61,54.382,-9.399
0.931,0.076,0.002,-1.099,71.35,-13.0
1.01,0.129,0.153,-4.15,71.411,-15.869
1.506,0.143,0.629,-8.789,51.086,-10.803
1.336,0.144,0.482,-10.498,-9.583,-6.531
0.789,0.221,-0.392,-12.207,-69.824,-4.211
0.971,0.247,-0.308,-14.099,-49.866,4.395
0.963,0.148,-0.037,-12.512,-9.216,11.963
0.93,0.085,-0.117,-10.498,-2.93,8.423
1.139,0.159,0.191,-7.263,1.892,-2.686
1.236,0.27,0.363,-6.653,-14.038,-6.592
1.097,0.239,0.096,-6.104,-50.842,-3.357
0.915,0.194,-0.146,-3.601,-65.43,0.977
0.893,0.168,-0.123,-1.099,-49.622,3.601
0.946,0.143,0.01,0.61,-29.053,1.648
0.981,0.134,0.083,1.648,-19.47,-2.197
0.942,0.146,0.034,1.526,-18.066,-5.188
0.908,0.15,-0.003,0.122,-12.451,-6.348
0.937,0.143,0.045,-1.77,-1.892,-6.226
0.972,0.143,0.104,-3.296,4.456,-6.287
0.987,0.159,0.113,-4.15,3.418,-7.751
0.984,0.169,0.092,-4.761,-0.793,-8.606
0.974,0.175,0.059,-5.005,-3.967,-9.033
0.967,0.169,0.013,-4.089,-4.639,-9.338
0.951,0.152,-0.017,-2.38,-2.258,-10.01
0.975,0.155,-0.001,0.0,2.869,-11.108
1.008,0.168,0.037,1.16,6.348,-10.803
1.028,0.181,0.061,1.099,5.249,-7.874
1.031,0.183,0.065,-0.366,0.671,-3.174
1.011,0.171,0.047,-1.709,-4.456,1.099
0.982,0.161,0.012,-2.258,-8.362,2.563
0.961,0.166,-0.004,-1.892,-8.362,1.831
0.948,0.176,-0.001,-1.282,-5.432,0.366
0.951,0.175,0.021,-0.977,-1.587,-0.366
0.958,0.164,0.044,-0.793,1.16,-0.549
0.959,0.163,0.06,-0.305,1.526,-1.099
0.955,0.168,0.059,0.977,0.793,-1.465
0.948,0.174,0.049,2.441,-0.977,-1.526
0.378,-0.314,2.424,85.632,106.812,9.888
0.39,-0.415,2.592,85.205,118.408,11.719
0.344,-0.341,2.754,78.613,115.784,22.888
0.323,-0.502,2.982,68.909,99.792,67.261
0.346,-0.874,3.358,48.462,70.251,128.845
0.366,-1.006,3.446,16.296,23.987,164.856
0.3,-0.965,3.092,-18.005,-10.376,182.8
0.059,-0.941,2.758,-51.88,2.93,181.03
-0.131,-0.796,2.724,-72.998,64.514,153.992
-0.134,-0.47,2.798,-76.904,137.39,116.028
-0.104,-0.134,2.79,-71.716,196.655,85.754
-0.106,0.002,2.674,-63.965,239.746,73.181
-0.093,-0.01,2.473,-54.199,271.79,69.458
-0.067,-0.082,2.23,-42.603,299.377,64.575
-0.059,-0.095,2.006,-32.227,322.021,54.81
-0.036,-0.11,1.743,-25.94,338.074,49.438
-0.025,-0.165,1.499,-22.644,346.985,47.913
-0.094,-0.282,1.227,-20.264,347.473,46.875
-0.048,-0.296,1.095,-19.958,345.093,41.26
-0.062,-0.286,0.843,-23.499,334.412,39.124
-0.184,-0.302,0.512,-31.128,322.449,40.405
-0.203,-0.32,0.277,-35.645,321.716,39.612
-0.135,-0.292,0.141,-34.729,323.364,34.18
-0.117,-0.191,-0.04,-27.771,318.787,26.611
-0.089,-0.079,-0.23,-17.151,312.988,21.912
-0.005,-0.007,-0.322,-4.578,311.157,23.071
0.117,-0.019,-0.32,8.972,306.335,29.114
0.233,-0.059,-0.278,22.827,290.527,34.363
0.258,-0.113,-0.375,36.743,262.085,36.011
0.285,-0.148,-0.459,47.424,234.314,35.278
0.421,-0.177,-0.444,50.415,209.534,35.034
0.504,-0.214,-0.471,43.213,179.199,37.903
0.496,-0.234,-0.533,28.32,148.071,42.114
0.454,-0.249,-0.542,10.071,123.718,44.8
0.438,-0.228,-0.474,-7.812,103.455,42.908
0.431,-0.177,-0.369,-23.56,81.238,40.344
0.338,-0.131,-0.396,-35.278,54.81,37.72
0.226,-0.065,-0.472,-42.419,35.95,36.072
0.159,0.022,-0.468,-45.654,31.372,37.537
0.137,0.105,-0.443,-43.945,33.508,41.077
0.117,0.179,-0.499,-37.354,37.048,46.082
0.193,0.218,-0.407,-27.588,46.936,51.88
0.327,0.212,-0.238,-14.404,52.307,55.481
0.399,0.194,-0.208,0.427,41.077,53.65
0.418,0.176,-0.265,15.442,24.536,48.706
0.433,0.142,-0.311,27.832,15.259,42.786
0.466,0.073,-0.293,35.645,13.916,36.926
0.5,-0.012,-0.212,36.621,14.526,30.273
0.519,-0.091,-0.136,30.09,11.902,22.766
0.503,-0.122,-0.083,15.32,5.127,13.733
0.464,-0.072,-0.02,-4.028,-2.136,5.371
0.474,-0.006,0.005,-24.353,-10.01,-0.671
0.502,0.06,-0.011,-43.579,-16.724,-3.113
0.524,0.132,-0.026,-59.57,-18.494,-1.831
0.561,0.195,-0.028,-71.045,-16.541,0.671
0.593,0.248,-0.029,-76.782,-13.55,2.258
0.613,0.294,-0.04,-76.843,-9.644,4.211
0.627,0.334,-0.058,-72.693,-4.272,5.798
0.662,0.362,-0.055,-65.491,3.174,6.775
0.704,0.379,-0.032,-56.946,10.986,7.751
0.725,0.394,-0.017,-47.485,16.602,8.545
0.754,0.397,-0.017,-37.903,20.081,8.423
0.806,0.382,0.013,-29.419,23.254,8.423
0.845,0.329,0.043,-22.156,22.888,7.69
0.849,0.3,-0.0,-16.418,18.921,4.272
0.877,0.29,-0.003,-12.512,17.7,0.61
0.879,0.279,-0.014,-12.268,17.578,-2.197
0.888,0.283,-0.008,-14.893,17.639,-4.15
0.908,0.293,0.017,-18.066,17.334,-5.188
0.927,0.293,0.043,-19.775,14.954,-6.409
0.918,0.296,0.04,-18.433,9.521,-8.972
0.898,0.305,-0.026,-13.672,3.906,-12.39
0.873,0.298,-0.104,-7.019,4.639,-14.893
0.885,0.269,-0.098,-0.671,14.221,-15.198
0.965,0.227,0.038,4.761,25.085,-14.465
1.019,0.218,0.109,8.423,23.804,-13.367
0.941,0.204,-0.019,8.789,13.977,-9.216
0.878,0.198,-0.101,7.751,14.832,-4.578
0.97,0.205,0.038,6.47,24.841,0.549
1.059,0.125,0.168,5.066,23.56,5.554
1.006,0.104,0.115,4.822,6.897,1.648
0.981,0.162,0.009,4.456,-7.812,-4.456
0.929,0.208,-0.122,0.977,-11.658,-6.287
1.026,0.213,0.002,-3.357,-5.066,-3.357
1.054,0.191,0.068,-4.272,-6.042,-2.136
0.939,0.183,-0.15,-3.906,-15.015,-3.601
0.988,0.205,-0.042,-2.075,-7.507,-5.493
1.075,0.219,0.148,0.244,-3.845,-6.714
1.028,0.223,0.071,0.854,-18.555,-6.165
1.005,0.192,0.026,1.404,-28.564,-3.601
0.995,0.146,0.018,2.136,-30.334,-2.441
0.881,0.13,-0.117,2.197,-29.236,-3.418
0.888,0.14,-0.094,0.854,-15.747,-4.883
0.956,0.151,0.044,-0.305,0.122,-5.676
0.974,0.143,0.089,-2.686,3.906,-5.249
0.979,0.125,0.103,-5.493,0.793,-4.944
0.986,0.128,0.104,-8.118,-3.235,-5.92
0.964,0.149,0.067,-10.864,-7.08,-6.47
0.942,0.178,0.032,-12.451,-7.812,-6.042
0.945,0.202,0.029,-12.817,-4.578,-5.249
0.961,0.216,0.038,-12.146,-1.16,-3.54
0.982,0.228,0.062,-11.597,0.977,-1.648
0.996,0.233,0.075,-10.376,0.488,-0.549
0.995,0.23,0.062,-8.423,-2.075,0.061
0.978,0.22,0.03,-6.287,-4.028,-0.122
0.956,0.218,0.009,-3.845,-2.869,-1.404
0.945,0.219,0.01,-1.77,0.854,-2.38
0.949,0.22,0.028,-0.122,5.31,-3.235
0.957,0.218,0.051,0.61,8.362,-3.357
0.952,0.213,0.066,0.122,9.155,-2.747
0.95,0.203,0.068,0.0,8.423,-2.38
0.949,0.197,0.061,-0.122,7.324,-2.441
0.952,0.198,0.051,-0.183,6.775,-2.258
0.958,0.194,0.052,-0.366,6.897,-2.563
0.96,0.187,0.055,-0.549,6.836,-2.625
0.966,0.18,0.058,-0.427,5.981,-3.54
0.952,0.189,0.044,-0.366,4.456,-5.615
0.951,0.203,0.033,-0.488,3.601,-6.958
0.956,0.212,0.028,0.061,3.662,-6.47
0.078,-0.538,2.636,67.505,117.249,53.101
0.162,-0.599,2.891,56.152,137.634,83.984
0.314,-0.766,3.122,49.805,148.987,113.647
0.564,-0.909,3.291,34.302,157.898,137.085
0.707,-0.946,3.4,17.822,159.973,145.386
0.567,-0.821,3.456,3.662,163.269,132.935
0.405,-0.656,3.423,6.592,177.307,110.291
0.394,-0.594,3.242,13.306,201.538,91.492
0.409,-0.605,3.041,18.433,230.896,80.933
0.329,-0.552,2.925,21.973,262.695,76.843
0.236,-0.513,2.71,20.874,288.94,76.233
0.159,-0.458,2.368,15.137,307.434,77.332
0.087,-0.388,1.986,6.348,321.228,80.872
-0.078,-0.417,1.607,-2.319,333.435,79.712
-0.02,-0.314,1.384,-4.089,342.285,68.115
-0.007,-0.242,1.1,-1.526,338.745,62.744
-0.016,-0.19,0.794,1.099,329.285,65.43
0.036,-0.22,0.582,2.197,320.068,77.026
0.034,-0.294,0.377,3.418,307.19,84.106
-0.005,-0.31,0.145,4.517,292.786,83.069
-0.032,-0.233,-0.036,6.592,282.593,77.271
0.016,-0.136,-0.119,10.132,276.611,72.021
0.076,-0.045,-0.205,16.235,268.494,70.129
0.161,-0.025,-0.261,22.705,255.188,72.998
0.244,-0.039,-0.401,27.466,236.633,77.881
0.291,-0.092,-0.562,28.198,219.604,82.031
0.445,-0.115,-0.492,27.039,210.266,83.313
0.566,-0.164,-0.388,24.719,192.2,83.74
0.496,-0.132,-0.545,20.142,161.865,81.116
0.605,-0.081,-0.395,13.55,142.212,84.839
0.646,-0.092,-0.227,6.47,116.516,90.942
0.523,-0.076,-0.363,-0.977,74.463,93.323
0.423,-0.028,-0.49,-5.371,43.579,92.651
0.435,0.072,-0.427,-7.568,30.579,91.919
0.399,0.118,-0.424,-8.118,18.677,94.299
0.324,0.098,-0.469,-7.08,9.094,96.802
0.247,0.067,-0.511,-3.479,8.545,94.788
0.178,0.041,-0.566,1.282,17.273,87.402
0.171,0.014,-0.531,8.179,35.706,74.28
0.25,0.026,-0.382,16.296,55.115,56.58
0.379,0.057,-0.212,23.254,62.317,39.978
0.442,0.069,-0.149,28.015,51.819,28.015
0.426,0.049,-0.192,29.48,33.875,20.325
0.406,0.023,-0.215,29.114,20.691,14.526
0.412,0.008,-0.198,27.405,12.817,10.01
0.434,-0.0,-0.157,23.376,5.981,7.568
0.467,-0.019,-0.129,15.686,-1.587,7.324
0.488,-0.042,-0.12,4.517,-8.667,7.629
0.517,-0.048,-0.088,-8.85,-14.282,6.775
0.55,-0.029,-0.05,-23.804,-20.203,4.395
0.562,0.013,-0.023,-39.307,-27.405,2.014
0.573,0.063,-0.007,-54.138,-34.302,0.854
0.577,0.105,0.005,-65.918,-39.612,2.197
0.559,0.154,-0.005,-72.998,-43.03,5.005
0.53,0.194,-0.033,-75.317,-42.542,8.179
0.531,0.217,-0.04,-74.951,-36.499,11.536
0.547,0.246,-0.023,-73.303,-26.855,15.198
0.55,0.279,-0.016,-70.129,-16.663,17.761
0.571,0.305,-0.024,-65.063,-6.714,19.165
0.621,0.33,-0.01,-59.387,3.906,19.287
0.694,0.351,0.02,-54.321,14.282,18.921
0.752,0.313,0.022,-51.025,21.24,18.616
0.78,0.278,0.028,-48.95,25.879,13.489
0.824,0.29,0.032,-48.767,29.175,4.578
0.875,0.314,0.087,-51.575,30.884,-2.747
0.92,0.335,0.127,-54.81,27.222,-7.751
0.934,0.351,0.115,-57.068,18.005,-9.827
0.914,0.373,0.078,-57.373,8.301,-9.827
0.887,0.39,0.022,-55.42,1.709,-9.033
0.879,0.395,-0.007,-49.744,0.793,-7.874
0.87,0.387,-0.028,-41.199,4.211,-6.897
0.895,0.373,0.002,-32.166,10.498,-6.165
0.919,0.367,0.034,-23.132,15.015,-5.676
0.912,0.37,0.019,-15.015,16.052,-4.944
0.906,0.311,0.007,-7.446,17.761,-3.54
0.988,0.273,0.133,0.244,20.142,-6.165
0.999,0.285,0.127,7.446,12.39,-9.827
0.926,0.247,-0.026,9.827,2.686,-9.888
0.896,0.19,-0.08,10.437,7.507,-9.033
0.991,0.172,0.062,10.132,19.897,-9.644
1.11,0.201,0.27,8.667,19.165,-10.559
1.111,0.231,0.266,5.798,-2.869,-7.751
0.981,0.247,0.064,1.526,-26.794,-0.244
0.928,0.134,0.002,-2.441,-32.349,7.996
0.822,0.059,-0.085,-1.953,-25.879,4.578
0.886,0.138,-0.039,-0.244,-11.963,-5.432
0.924,0.235,-0.008,-1.648,1.648,-9.338
1.012,0.267,0.145,-4.944,10.681,-4.333
1.057,0.221,0.224,-5.127,5.859,2.625
1.015,0.167,0.15,-2.502,-10.376,3.967
0.971,0.191,0.07,0.977,-22.217,0.488
0.94,0.216,0.016,1.953,-24.475,-1.282
0.909,0.191,-0.031,0.427,-19.287,-0.488
0.915,0.164,-0.01,-0.854,-7.874,-0.305
0.96,0.167,0.077,-1.953,3.052,-2.502
0.993,0.18,0.133,-3.845,6.409,-4.761
0.981,0.191,0.118,-6.042,3.113,-5.798
0.962,0.21,0.092,-7.507,0.244,-5.92
0.952,0.234,0.082,-8.057,0.305,-5.432
0.952,0.25,0.084,-7.874,1.77,-4.272
0.95,0.253,0.094,-6.775,3.052,-3.54
0.953,0.263,0.095,-5.005,2.869,-3.54
0.958,0.27,0.087,-2.319,2.014,-3.601
0.952,0.26,0.064,1.221,0.793,-2.869
0.946,0.236,0.035,4.761,0.732,-2.136
0.944,0.211,0.023,6.897,3.235,-1.648
0.958,0.197,0.037,7.507,6.348,-1.831
0.982,0.191,0.063,6.348,8.362,-1.526
0.984,0.184,0.077,2.991,7.812,-0.122
0.968,0.177,0.071,-0.305,5.737,1.526
0.951,0.179,0.058,-2.808,4.089,1.343
0.941,0.196,0.054,-4.272,4.089,0.305
0.941,0.215,0.072,-4.761,4.7,-0.793
0.949,0.22,0.096,-4.028,4.395,-0.977
0.955,0.216,0.103,-2.625,1.77,-0.61
0.959,0.208,0.097,-1.099,-1.953,-0.122
0.96,0.202,0.085,0.183,-4.761,0.549
0.96,0.191,0.064,0.671,-5.798,0.854
0.956,0.188,0.046,0.122,-4.761,0.488
0.483,-0.431,2.39,61.523,83.191,47.424
0.482,-0.552,2.618,47.241,86.853,50.598
0.454,-0.674,2.816,24.78,94.36,51.819
0.528,-0.642,2.94,7.385,100.403,61.768
0.601,-0.483,3.082,-2.808,103.577,82.336
0.549,-0.357,3.279,-18.005,105.774,114.807
0.477,-0.466,3.505,-31.433,98.999,150.146
0.546,-0.495,3.499,-34.79,79.956,171.387
0.416,-0.487,3.32,-40.894,64.575,175.598
0.118,-0.518,3.072,-53.528,67.871,156.616
-0.192,-0.41,2.787,-56.702,90.21,118.103
-0.391,-0.252,2.509,-52.246,127.38,79.529
-0.544,-0.206,2.189,-44.617,171.997,48.218
-0.618,-0.22,1.878,-34.119,220.581,25.391
-0.516,-0.214,1.681,-21.423,271.057,10.376
-0.394,-0.206,1.476,-10.803,312.622,4.578
-0.3,-0.219,1.27,-2.563,342.041,6.958
-0.201,-0.288,1.157,4.822,358.887,12.817
-0.156,-0.338,1.035,13.245,357.788,15.259
-0.142,-0.314,0.802,22.766,342.712,14.099
-0.125,-0.31,0.564,29.724,325.928,16.479
-0.102,-0.332,0.37,34.058,313.293,21.057
-0.054,-0.39,0.237,32.104,303.711,28.381
-0.005,-0.392,0.135,27.1,293.396,33.264
0.058,-0.312,0.02,20.935,279.785,36.804
0.11,-0.241,-0.095,13.306,266.174,42.297
0.131,-0.203,-0.257,6.897,252.808,48.401
0.223,-0.18,-0.289,3.235,243.53,52.185
0.319,-0.169,-0.325,3.967,229.553,51.392
0.343,-0.122,-0.443,5.92,210.876,47.424
0.412,-0.003,-0.453,7.629,198.792,47.974
0.546,0.003,-0.239,8.789,186.951,58.289
0.534,-0.043,-0.198,9.094,155.579,67.322
0.467,-0.059,-0.273,9.888,116.821,70.313
0.415,0.007,-0.368,9.46,86.792,72.51
0.396,0.034,-0.367,5.005,70.068,80.017
0.349,-0.035,-0.355,-2.014,59.57,87.158
0.263,-0.097,-0.417,-8.545,51.147,84.656
0.186,-0.089,-0.496,-14.038,51.453,71.289
0.184,-0.038,-0.473,-19.348,63.66,53.955
0.241,-0.007,-0.346,-24.109,78.308,38.025
0.299,0.008,-0.237,-26.611,82.947,23.01
0.352,0.031,-0.196,-25.94,77.82,9.033
0.376,0.072,-0.165,-23.743,67.932,-0.488
0.399,0.104,-0.173,-19.531,55.298,-4.822
0.444,0.12,-0.202,-14.343,44.25,-4.028
0.464,0.13,-0.184,-9.338,37.598,1.77
0.49,0.106,-0.155,-4.761,32.654,9.399
0.529,0.084,-0.09,-1.404,26.917,14.282
0.558,0.087,-0.042,0.183,16.541,16.663
0.569,0.101,-0.033,-0.977,2.441,17.09
0.573,0.108,-0.046,-3.479,-10.864,16.785
0.571,0.114,-0.072,-6.714,-21.362,16.479
0.56,0.115,-0.117,-10.193,-26.55,16.663
0.56,0.106,-0.127,-13.062,-24.78,15.503
0.586,0.141,-0.131,-15.259,-19.043,12.39
0.606,0.179,-0.136,-18.25,-10.925,11.047
0.641,0.208,-0.117,-21.301,-0.916,11.353
0.672,0.232,-0.085,-22.949,8.85,11.78
0.723,0.249,-0.049,-23.132,15.259,10.925
0.767,0.264,-0.015,-22.278,17.822,9.033
0.779,0.293,-0.022,-20.752,16.968,6.409
0.761,0.323,-0.056,-19.287,16.479,4.395
0.7,0.198,-0.132,-16.907,19.531,2.38
0.753,0.221,-0.047,-12.39,28.381,-8.362
0.908,0.294,0.113,-9.216,33.325,-15.137
0.929,0.323,0.115,-10.803,22.339,-13.184
0.863,0.275,-0.016,-13.245,8.972,-6.042
0.855,0.242,-0.039,-13.55,7.263,-2.563
0.877,0.241,-0.014,-11.78,9.033,-2.625
0.892,0.245,-0.001,-9.583,8.118,-5.127
0.907,0.246,-0.025,-6.897,6.836,-7.935
0.914,0.225,-0.043,-5.249,8.179,-7.996
0.951,0.185,0.036,-3.357,13.0,-7.935
0.965,0.153,0.064,-1.831,11.475,-9.583
0.931,0.123,-0.003,-2.075,6.226,-11.536
0.923,0.114,-0.02,-4.333,7.568,-12.817
0.949,0.143,0.03,-7.507,13.733,-12.329
0.961,0.151,0.068,-10.803,17.151,-8.606
0.961,0.101,0.118,-12.756,16.357,-5.493
0.986,0.115,0.154,-12.573,10.742,-6.348
1.031,0.17,0.194,-12.207,1.404,-6.287
1.07,0.175,0.255,-12.39,-10.681,-2.686
1.023,0.141,0.155,-10.803,-27.466,1.099
0.954,0.126,-0.005,-8.057,-36.377,3.296
0.973,0.105,0.01,-5.737,-28.564,4.883
0.997,0.07,0.065,-2.93,-18.188,3.906
0.967,0.073,0.025,-1.16,-12.085,-0.061
0.952,0.083,0.049,-1.77,-3.479,-2.075
0.992,0.1,0.143,-3.723,5.127,-2.441
1.054,0.123,0.239,-5.676,6.042,-0.854
1.057,0.137,0.26,-8.118,-2.808,2.38
1.022,0.128,0.192,-9.583,-15.015,5.005
1.001,0.14,0.132,-8.667,-22.217,4.578
0.989,0.173,0.088,-6.958,-23.682,2.563
0.971,0.191,0.041,-4.883,-19.653,1.16
0.957,0.165,0.023,-2.319,-10.254,0.977
0.965,0.116,0.08,0.122,1.465,0.305
0.985,0.094,0.135,1.709,9.033,-2.625
0.993,0.116,0.154,1.16,10.376,-5.798
1.001,0.137,0.17,-1.465,9.644,-6.104
1.004,0.128,0.173,-3.967,7.629,-4.639
0.998,0.14,0.152,-5.554,4.517,-3.906
0.982,0.159,0.123,-5.554,2.563,-4.089
0.968,0.179,0.099,-4.15,2.808,-4.456
0.977,0.205,0.108,-2.441,5.005,-3.418
0.982,0.211,0.13,-0.61,6.348,-0.916
0.971,0.202,0.123,2.014,5.005,1.587
0.977,0.188,0.128,4.944,3.052,3.235
0.971,0.163,0.121,7.812,0.732,3.723
0.931,0.131,0.059,10.132,-0.61,2.869
0.907,0.113,0.017,11.597,3.052,0.793
0.938,0.125,0.068,11.963,11.475,-1.038
0.988,0.14,0.175,11.475,15.93,-0.427
0.981,0.132,0.179,9.705,8.972,1.221
0.942,0.119,0.108,7.568,-0.854,2.869
0.926,0.117,0.072,5.92,-4.639,3.113
0.926,0.127,0.051,4.7,-4.578,1.77
0.919,0.139,0.026,3.723,-2.258,0.305
0.183,-0.653,2.151,78.369,48.157,20.935
0.255,-0.82,2.378,65.247,66.101,32.471
0.281,-0.97,2.606,42.236,82.092,49.377
0.288,-1.011,2.837,3.296,103.21,72.266
0.307,-0.921,2.98,-41.626,129.333,98.022
0.326,-0.69,3.035,-81.238,155.334,112.549
0.338,-0.496,3.041,-107.239,185.242,114.136
0.432,-0.214,3.013,-111.816,212.036,105.957
0.52,-0.008,2.973,-95.886,230.591,99.976
0.514,0.072,2.87,-70.618,243.896,91.248
0.457,0.053,2.724,-43.64,258.362,81.055
0.465,0.031,2.59,-26.062,275.94,73.975
0.425,-0.008,2.399,-16.968,287.72,69.397
0.253,-0.226,2.138,-11.169,297.913,64.27
0.258,-0.328,2.11,-6.592,308.411,45.898
0.212,-0.242,1.743,-2.075,303.04,25.146
0.135,-0.149,1.452,-7.324,303.284,24.048
0.083,-0.208,1.291,-15.198,310.608,36.377
0.036,-0.334,1.078,-18.555,313.293,43.762
0.072,-0.399,0.886,-19.104,312.378,41.931
0.079,-0.422,0.651,-20.63,311.951,35.889
0.125,-0.404,0.48,-26.062,316.284,32.41
0.197,-0.366,0.411,-32.837,321.899,31.25
0.209,-0.27,0.363,-36.438,320.984,27.893
0.212,-0.162,0.236,-34.668,309.143,21.729
0.235,-0.063,0.113,-24.536,290.039,15.625
0.264,0.027,-0.022,-6.348,267.09,10.742
0.343,0.097,-0.165,15.686,244.263,11.23
0.369,0.035,-0.229,39.795,222.595,14.648
0.235,0.001,-0.632,61.768,199.036,15.381
0.388,-0.14,-0.502,75.5,199.951,18.921
0.585,-0.165,-0.157,82.458,191.833,16.602
0.623,-0.172,-0.054,76.965,144.348,22.827
0.482,-0.221,-0.271,60.791,82.397,32.166
0.347,-0.255,-0.431,39.734,40.222,41.748
0.241,-0.251,-0.457,19.592,21.79,48.035
0.155,-0.182,-0.41,4.15,15.015,49.805
0.088,-0.119,-0.389,-2.075,10.986,50.049
-0.014,-0.041,-0.46,-0.488,11.108,48.767
-0.08,0.04,-0.492,7.568,23.499,49.255
-0.077,0.08,-0.496,20.203,44.128,49.927
0.007,0.072,-0.408,34.424,64.27,47.852
0.169,0.038,-0.23,48.401,73.12,40.466
0.248,-0.01,-0.188,57.495,62.317,29.419
0.235,-0.054,-0.257,60.303,42.908,17.09
0.255,-0.087,-0.317,60.303,28.87,3.967
0.351,-0.082,-0.289,59.509,21.118,-7.874
0.44,-0.048,-0.259,59.57,12.451,-15.93
0.464,-0.026,-0.278,58.777,1.404,-16.113
0.466,-0.031,-0.267,56.274,-5.615,-9.399
0.451,-0.049,-0.215,50.964,-9.766,0.305
0.417,-0.05,-0.155,42.847,-14.893,10.071
0.376,-0.038,-0.127,32.227,-20.447,18.494
0.361,-0.031,-0.106,19.104,-23.01,23.804
0.369,-0.02,-0.085,5.249,-22.705,25.757
0.38,0.008,-0.118,-7.751,-20.996,23.682
0.42,0.059,-0.168,-18.25,-15.015,19.592
0.49,0.113,-0.187,-27.161,-4.272,15.32
0.567,0.16,-0.179,-33.875,7.324,11.963
0.643,0.199,-0.145,-38.208,16.174,8.972
0.706,0.229,-0.124,-40.833,18.921,6.226
0.746,0.247,-0.131,-41.809,17.212,4.639
0.768,0.259,-0.147,-42.419,14.893,4.272
0.802,0.263,-0.144,-42.358,13.672,5.188
0.836,0.264,-0.123,-42.175,12.756,6.165
0.864,0.266,-0.105,-42.542,10.376,7.568
0.878,0.276,-0.11,-42.969,6.592,9.46
0.903,0.285,-0.083,-42.664,3.174,11.292
0.911,0.275,-0.071,-40.466,-1.709,12.207
0.893,0.257,-0.102,-36.255,-6.775,10.742
0.894,0.258,-0.106,-31.128,-7.08,7.446
0.932,0.257,-0.039,-26.917,-4.578,5.188
0.946,0.225,-0.042,-24.414,-5.188,4.395
0.918,0.185,-0.097,-23.193,-4.822,2.502
0.991,0.176,0.037,-21.545,0.793,-1.282
1.055,0.194,0.124,-19.531,-0.916,-4.578
1.039,0.199,0.064,-18.738,-11.292,-3.845
0.959,0.171,-0.088,-18.311,-15.076,0.305
1.012,0.149,0.059,-17.212,-3.54,4.15
1.087,0.134,0.189,-14.709,-0.549,4.761
1.042,0.123,0.099,-13.794,-12.695,3.967
0.99,0.114,0.008,-13.245,-16.724,2.747
1.105,0.172,0.18,-13.733,-12.817,1.709
1.092,0.158,0.203,-12.512,-16.785,2.93
1.056,0.139,0.088,-12.024,-28.625,4.272
1.043,0.149,0.056,-10.315,-28.931,5.249
1.059,0.147,0.079,-9.521,-21.362,5.92
1.105,0.152,0.163,-9.521,-16.418,6.226
1.104,0.14,0.174,-10.254,-18.433,5.554
1.045,0.136,0.077,-10.498,-22.705,2.93
1.032,0.149,0.082,-10.742,-18.616,-0.183
1.037,0.151,0.121,-11.292,-11.719,-2.563
1.033,0.146,0.136,-11.108,-8.118,-4.761
1.018,0.139,0.139,-9.827,-5.92,-6.104
0.991,0.128,0.134,-8.606,-3.479,-7.263
0.969,0.109,0.139,-7.385,0.854,-7.568
0.965,0.089,0.156,-5.981,5.554,-8.179
0.978,0.078,0.187,-4.7,8.484,-9.46
0.982,0.084,0.209,-4.456,8.362,-10.315
0.992,0.12,0.218,-5.676,5.493,-9.277
0.999,0.156,0.215,-8.118,1.282,-4.822
0.972,0.149,0.156,-9.949,-3.418,1.892
0.957,0.13,0.109,-8.972,-4.15,6.287
0.972,0.119,0.118,-5.676,-1.404,6.165
0.977,0.134,0.118,-1.526,0.488,3.235
0.971,0.152,0.109,2.258,1.648,1.343
0.959,0.146,0.101,4.333,3.357,1.221
0.952,0.134,0.103,5.371,5.432,1.099
0.95,0.128,0.106,6.287,6.104,0.244
0.946,0.132,0.086,6.897,5.92,-0.916
0.95,0.14,0.08,7.08,6.653,-0.977
0.949,0.134,0.076,6.287,8.118,0.427
0.944,0.12,0.065,4.7,9.888,1.892
0.964,0.13,0.093,3.418,12.024,2.319
1.011,0.153,0.156,1.953,10.742,2.502
1.005,0.169,0.118,0.244,2.869,3.479
0.957,0.166,0.027,-0.427,-3.418,4.272
0.895,0.156,-0.083,-0.366,-1.831,3.235
0.896,0.162,-0.067,0.183,10.132,0.427
0.151,-0.558,2.3,86.487,44.495,14.648
0.078,-0.782,2.527,71.167,51.941,32.715
0.018,-0.807,2.76,45.349,62.5,49.683
-0.06,-0.769,2.951,28.259,73.975,70.801
-0.077,-0.818,3.147,16.846,93.079,98.267
0.055,-0.847,3.294,-6.226,125.0,127.38
0.181,-0.821,3.339,-38.025,160.156,149.536
0.311,-0.688,3.369,-70.19,195.007,152.588
0.45,-0.474,3.36,-85.815,222.656,143.799
0.409,-0.219,3.277,-83.862,242.31,127.563
0.265,-0.125,3.093,-69.58,260.071,112.122
0.132,-0.073,2.867,-49.011,277.771,96.741
0.056,-0.113,2.613,-30.029,293.762,85.266
-0.011,-0.22,2.315,-18.982,306.824,74.89
-0.126,-0.385,1.987,-15.381,321.655,61.646
-0.029,-0.367,1.791,-13.855,334.29,42.786
-0.077,-0.271,1.464,-12.024,333.069,32.776
-0.152,-0.217,1.208,-10.498,333.74,33.691
-0.201,-0.262,1.011,-5.676,332.947,39.368
-0.228,-0.327,0.722,4.822,325.806,41.077
-0.191,-0.371,0.474,13.611,318.97,40.466
-0.189,-0.396,0.309,17.578,316.04,41.016
-0.199,-0.392,0.127,15.625,311.157,39.978
-0.156,-0.33,-0.061,12.146,305.298,36.133
-0.075,-0.219,-0.213,11.78,301.819,33.142
0.084,-0.11,-0.248,14.709,299.5,34.241
0.222,-0.038,-0.236,21.24,287.72,41.138
0.315,-0.11,-0.253,28.809,265.93,52.551
0.319,-0.14,-0.323,38.513,237.061,54.138
0.306,-0.084,-0.606,46.448,206.177,53.833
0.423,-0.173,-0.507,46.692,194.519,59.387
0.657,-0.14,-0.201,48.035,176.208,54.565
0.777,-0.071,-0.032,46.021,127.014,54.749
0.63,-0.031,-0.24,36.438,60.059,60.669
0.447,-0.055,-0.469,22.766,12.634,70.068
0.302,-0.071,-0.543,11.169,-4.517,76.904
0.222,-0.057,-0.503,5.798,-4.7,77.393
0.16,-0.03,-0.475,4.7,-1.221,72.815
0.057,0.002,-0.55,5.432,4.944,67.322
-0.076,0.03,-0.707,7.935,23.254,62.256
-0.058,-0.003,-0.596,10.803,59.265,54.565
0.122,-0.032,-0.307,17.822,89.294,40.039
0.26,0.005,-0.187,27.527,89.966,21.362
0.3,0.06,-0.239,36.072,74.341,7.812
0.324,0.067,-0.283,40.283,61.707,3.113
0.377,0.021,-0.247,43.03,53.528,3.235
0.412,-0.018,-0.231,45.288,41.626,2.991
0.418,-0.016,-0.228,46.997,27.344,2.808
0.416,-0.005,-0.235,44.25,14.526,5.859
0.4,-0.024,-0.246,34.546,5.615,12.573
0.394,-0.046,-0.238,21.362,1.343,17.822
0.415,-0.038,-0.215,8.667,-0.854,18.311
0.438,0.005,-0.214,-3.052,-2.747,15.564
0.458,0.062,-0.188,-13.916,-2.258,14.221
0.484,0.099,-0.147,-23.56,-1.282,14.282
0.483,0.125,-0.148,-31.311,-1.953,14.16
0.48,0.157,-0.153,-36.865,-1.343,13.55
0.487,0.195,-0.155,-39.673,1.465,11.719
0.516,0.233,-0.152,-39.429,5.31,9.888
0.557,0.27,-0.165,-37.292,10.193,8.789
0.619,0.293,-0.16,-34.851,15.137,9.521
0.679,0.31,-0.158,-33.264,19.043,12.634
0.735,0.298,-0.155,-32.593,21.423,16.785
0.799,0.279,-0.114,-33.081,22.583,17.944
0.846,0.266,-0.104,-34.729,18.738,17.029
0.877,0.274,-0.109,-37.109,12.39,15.198
0.922,0.289,-0.088,-39.246,5.92,13.672
0.936,0.292,-0.133,-40.955,-0.732,12.756
0.915,0.299,-0.196,-42.847,-2.93,12.451
0.956,0.299,-0.159,-42.908,2.502,12.024
1.001,0.273,-0.08,-40.833,6.104,9.094
0.975,0.281,-0.115,-38.086,2.625,3.113
0.959,0.287,-0.138,-37.415,1.526,0.0
0.976,0.262,-0.091,-37.964,5.066,-1.465
1.013,0.235,-0.042,-38.757,6.165,-3.479
1.088,0.244,0.045,-39.734,2.441,-5.798
1.101,0.27,0.034,-40.649,-7.568,-6.042
1.058,0.282,-0.015,-40.955,-16.357,-3.54
0.981,0.235,-0.093,-40.283,-17.517,0.427
1.021,0.185,-0.017,-38.574,-9.399,0.488
1.067,0.195,0.094,-34.18,-4.456,-4.639
1.115,0.258,0.2,-30.945,-10.925,-9.155
1.056,0.259,0.158,-27.649,-23.01,-8.545
1.052,0.228,0.094,-26.001,-34.546,-5.432
1.074,0.195,0.15,-22.644,-35.889,-2.319
1.086,0.172,0.178,-18.555,-38.879,-1.526
1.1,0.172,0.213,-15.259,-46.387,-2.625
1.083,0.169,0.223,-13.367,-55.237,-2.869
0.995,0.144,0.084,-12.634,-63.049,-1.953
0.939,0.109,0.044,-12.695,-57.312,-0.977
0.935,0.087,0.094,-12.634,-42.786,-1.892
0.94,0.094,0.147,-13.184,-31.433,-4.15
0.962,0.111,0.219,-14.16,-24.78,-6.042
0.96,0.117,0.25,-14.709,-24.597,-6.592
0.919,0.108,0.212,-14.709,-27.954,-5.92
0.872,0.093,0.154,-13.367,-28.381,-5.371
0.861,0.079,0.136,-11.719,-22.766,-5.798
0.888,0.081,0.171,-10.071,-14.282,-7.263
0.929,0.119,0.226,-9.644,-9.094,-9.949
0.958,0.187,0.24,-10.315,-10.437,-10.742
0.95,0.23,0.202,-12.268,-14.16,-6.287
0.946,0.217,0.183,-13.306,-14.709,0.244
0.957,0.211,0.193,-12.939,-13.123,5.005
0.947,0.222,0.163,-11.536,-12.695,7.996
0.937,0.224,0.137,-9.949,-10.742,9.399
0.972,0.231,0.195,-7.751,-6.836,9.949
0.975,0.221,0.203,-5.554,-7.141,9.521
0.948,0.213,0.148,-2.869,-9.888,6.653
0.938,0.221,0.12,0.488,-7.996,3.113
0.942,0.232,0.116,3.54,-2.686,1.282
0.942,0.221,0.104,5.432,2.869,1.221
0.958,0.194,0.126,7.141,8.911,1.77
1.0,0.179,0.188,9.033,11.963,1.038
1.02,0.181,0.205,10.193,8.301,-0.366
1.018,0.176,0.2,10.376,1.404,0.0
1.003,0.165,0.189,10.681,-5.615,0.977
0.971,0.173,0.142,10.925,-11.658,1.343
0.942,0.165,0.094,11.047,-13.55,2.197
0.902,0.146,0.042,10.864,-9.644,2.014
0.149,0.144,2.818,69.946,168.152,-26.611
0.238,0.121,2.87,72.51,199.829,-25.513
0.373,0.104,2.847,67.688,228.821,-17.212
0.479,0.138,2.777,58.96,246.277,-0.244
0.643,0.117,2.743,51.636,255.859,28.259
0.763,0.141,2.758,39.612,264.099,57.983
0.791,0.145,2.843,21.729,267.517,80.322
0.744,0.02,2.932,6.226,257.263,100.708
0.643,-0.127,3.001,-7.446,230.042,105.042
0.478,-0.102,2.699,-17.517,180.42,92.224
0.206,0.009,2.146,-25.391,136.841,81.97
-0.041,-0.018,1.552,-30.579,125.0,75.989
-0.302,-0.152,1.131,-28.992,144.836,60.486
-0.417,-0.185,0.861,-20.996,189.514,41.748
-0.348,-0.192,0.592,-18.799,247.07,29.907
-0.261,-0.323,0.422,-23.499,304.993,18.433
-0.084,-0.339,0.484,-30.884,354.431,4.7
0.157,-0.277,0.61,-40.283,379.333,-4.211
0.168,-0.227,0.467,-51.208,374.817,-6.165
0.191,-0.247,0.367,-61.218,366.333,-3.662
0.318,-0.223,0.383,-65.552,354.858,-3.845
0.362,-0.154,0.255,-63.049,328.613,-8.484
0.367,-0.066,0.081,-55.481,298.706,-14.099
0.356,-0.021,-0.084,-42.847,273.621,-17.273
0.335,-0.038,-0.22,-25.146,255.92,-21.545
0.391,-0.066,-0.281,-5.432,245.056,-27.1
0.465,-0.069,-0.327,12.39,235.474,-30.518
0.549,-0.064,-0.275,26.123,225.098,-28.381
0.592,-0.094,-0.264,34.851,208.496,-20.752
0.593,-0.159,-0.275,37.17,187.439,-12.512
0.606,-0.223,-0.192,36.133,165.588,-7.141
0.558,-0.252,-0.242,32.715,134.644,-5.371
0.495,-0.237,-0.346,24.597,107.727,-3.906
0.434,-0.203,-0.387,15.32,92.346,-0.977
0.405,-0.165,-0.386,7.385,84.473,1.892
0.382,-0.157,-0.386,2.625,78.735,3.052
0.352,-0.14,-0.358,2.197,73.669,0.488
0.379,-0.088,-0.296,8.85,68.604,-5.432
0.416,-0.013,-0.253,19.714,62.622,-9.521
0.429,0.037,-0.236,30.701,57.922,-5.249
0.432,0.01,-0.203,40.955,56.946,6.165
0.437,-0.078,-0.166,49.561,56.396,16.907
0.486,-0.155,-0.092,56.152,52.612,21.79
0.513,-0.174,-0.066,59.998,42.969,21.79
0.517,-0.167,-0.089,58.105,31.067,20.447
0.518,-0.165,-0.114,50.232,22.278,20.264
0.545,-0.177,-0.127,39.978,18.494,20.691
0.58,-0.199,-0.133,28.442,17.639,20.325
0.605,-0.202,-0.116,14.587,18.616,18.555
0.593,-0.187,-0.118,-2.319,19.958,16.479
0.634,-0.167,-0.055,-19.409,21.057,12.085
0.62,-0.089,-0.057,-33.386,18.311,4.883
0.595,0.018,-0.091,-44.373,14.648,0.977
0.621,0.089,-0.065,-50.598,15.076,0.732
0.661,0.13,-0.041,-51.086,13.489,1.709
0.676,0.175,-0.072,-46.509,8.484,3.479
0.706,0.2,-0.096,-38.147,3.723,5.493
0.733,0.206,-0.123,-28.992,0.977,8.728
0.745,0.177,-0.153,-19.958,0.305,12.695
0.76,0.13,-0.14,-11.963,2.625,14.038
0.797,0.125,-0.096,-4.7,4.089,11.78
0.813,0.134,-0.073,0.366,1.343,9.399
0.833,0.147,-0.046,3.418,-3.601,8.667
0.816,0.136,-0.061,3.479,-8.789,11.108
0.788,0.11,-0.084,1.16,-10.925,13.184
0.77,0.089,-0.112,-1.831,-8.423,12.207
0.782,0.108,-0.141,-4.333,-1.587,9.46
0.803,0.132,-0.146,-5.859,9.155,8.667
0.832,0.135,-0.125,-7.019,20.508,10.498
0.873,0.132,-0.081,-7.69,28.809,13.489
0.932,0.124,-0.009,-8.911,31.86,16.968
0.993,0.074,0.076,-10.62,26.123,19.348
1.072,0.072,0.195,-11.658,10.193,17.09
1.042,0.139,0.105,-13.672,-15.93,14.465
1.0,0.164,-0.001,-19.47,-35.706,17.822
0.975,0.111,-0.038,-24.536,-41.138,22.4
0.965,0.061,-0.062,-28.87,-39.917,24.109
0.952,0.063,-0.07,-33.142,-35.278,21.545
0.942,0.069,-0.064,-37.415,-28.381,17.151
0.949,0.063,-0.037,-41.687,-21.301,10.925
0.951,0.117,-0.02,-44.189,-15.32,2.197
0.978,0.186,-0.014,-44.8,-11.353,-3.357
1.016,0.225,0.016,-43.823,-8.057,-4.883
1.022,0.239,-0.003,-40.649,-7.568,-3.296
1.022,0.229,-0.034,-35.217,-6.958,-0.488
1.046,0.205,-0.017,-27.832,-3.967,0.366
1.073,0.188,0.017,-20.996,-3.174,0.0
1.082,0.186,0.025,-15.381,-5.371,-0.305
1.079,0.186,0.045,-11.292,-8.484,0.0
1.076,0.165,0.078,-10.254,-12.512,2.075
1.061,0.131,0.094,-10.986,-17.456,4.272
1.047,0.126,0.091,-12.329,-22.095,4.089
1.031,0.153,0.071,-13.794,-25.696,2.197
1.021,0.181,0.047,-14.587,-27.344,1.038
1.01,0.187,0.044,-13.794,-25.024,1.16
0.991,0.188,0.052,-13.123,-20.813,1.77
0.975,0.186,0.05,-10.925,-17.09,1.221
0.969,0.189,0.042,-7.019,-12.939,-1.099
0.971,0.198,0.033,-2.38,-7.385,-3.723
0.977,0.2,0.022,2.258,-0.732,-4.944
0.979,0.179,0.019,5.798,6.165,-5.005
0.981,0.155,0.022,8.667,11.658,-4.944
0.982,0.135,0.025,11.414,15.564,-5.188
0.989,0.121,0.024,12.451,18.311,-5.859
0.995,0.103,0.02,12.085,19.714,-5.981
1.021,0.083,0.023,10.559,19.592,-5.432
1.031,0.084,0.052,7.996,16.907,-5.432
1.021,0.097,0.073,5.005,10.132,-6.592
1.022,0.117,0.061,2.563,-0.244,-8.179
1.0,0.147,0.009,1.221,-9.216,-8.484
0.977,0.154,-0.031,0.671,-13.0,-6.165
0.964,0.148,-0.035,1.465,-12.329,-4.333
0.953,0.146,-0.036,4.15,-10.498,-3.418
0.943,0.146,-0.041,7.08,-8.179,-2.747
0.936,0.142,-0.034,9.033,-4.639,-0.732
0.933,0.132,-0.033,10.681,-1.282,0.916
0.939,0.122,-0.033,12.939,2.258,1.709
0.95,0.118,-0.031,15.686,5.31,1.587
0.96,0.107,-0.039,16.541,7.507,1.099
0.273,-0.578,2.235,52.368,77.637,46.875
0.299,-0.752,2.457,27.71,82.825,60.73
0.246,-0.967,2.625,-1.648,84.717,73.425
0.282,-1.064,2.787,-39.368,94.482,85.205
0.316,-0.937,2.969,-66.345,109.253,90.82
0.347,-0.66,3.068,-82.458,126.282,90.454
0.416,-0.434,3.051,-84.106,146.912,94.36
0.498,-0.336,3.015,-69.092,170.349,96.68
0.589,-0.259,3.049,-45.044,195.312,91.309
0.593,-0.288,3.053,-24.353,216.125,88.318
0.441,-0.363,2.932,-11.475,229.248,85.022
0.298,-0.396,2.724,-3.784,241.821,78.674
0.183,-0.405,2.452,-4.089,259.46,75.256
0.1,-0.462,2.19,-11.047,282.532,73.792
0.07,-0.496,1.907,-21.118,304.077,68.787
0.024,-0.445,1.637,-30.579,320.923,59.631
-0.047,-0.406,1.368,-35.828,333.557,51.147
-0.123,-0.389,1.146,-35.583,343.201,44.25
-0.224,-0.388,0.906,-29.297,346.436,35.522
-0.305,-0.387,0.643,-18.921,346.13,25.33
-0.353,-0.382,0.42,-5.859,344.971,14.954
-0.361,-0.359,0.235,10.376,343.018,3.784
-0.305,-0.299,0.085,30.029,338.623,-6.348
-0.228,-0.181,0.009,52.063,328.979,-12.207
-0.173,-0.074,0.003,73.303,314.941,-8.057
-0.027,-0.022,-0.022,86.06,293.396,7.324
0.042,-0.012,-0.081,93.079,258.606,31.189
0.107,-0.056,-0.058,95.093,218.445,64.575
0.041,-0.182,-0.242,86.06,167.48,98.389
-0.033,-0.321,-0.58,70.007,121.887,120.911
0.077,-0.392,-0.631,52.185,103.21,129.395
0.188,-0.371,-0.573,36.621,90.21,125.061
0.198,-0.282,-0.654,20.691,70.618,113.953
0.183,-0.171,-0.771,2.747,57.495,104.553
0.2,-0.075,-0.768,-14.099,59.265,101.44
0.266,-0.044,-0.681,-27.832,65.186,100.281
0.334,-0.051,-0.609,-36.621,64.209,93.384
0.346,-0.064,-0.596,-43.396,57.007,80.811
0.238,-0.037,-0.705,-50.598,51.208,65.552
0.129,0.029,-0.785,-55.481,60.547,49.011
0.229,0.091,-0.559,-56.152,84.045,33.752
0.415,0.133,-0.309,-51.941,92.773,22.034
0.509,0.171,-0.259,-44.861,78.186,16.357
0.525,0.2,-0.322,-37.354,58.655,18.433
0.557,0.196,-0.331,-30.457,48.157,25.513
0.608,0.161,-0.292,-23.987,43.762,31.921
0.648,0.13,-0.25,-19.592,39.429,35.522
0.658,0.123,-0.218,-18.372,33.875,37.17
0.66,0.132,-0.182,-20.813,28.748,37.354
0.672,0.135,-0.142,-25.085,23.56,35.645
0.688,0.135,-0.128,-29.724,17.029,31.433
0.705,0.157,-0.135,-33.875,10.681,25.879
0.731,0.189,-0.146,-36.865,6.897,20.691
0.76,0.219,-0.139,-40.1,6.47,17.944
0.775,0.246,-0.121,-42.48,8.118,17.456
0.782,0.268,-0.103,-43.701,9.46,16.785
0.796,0.29,-0.086,-43.518,9.338,15.259
0.811,0.313,-0.077,-41.199,8.789,13.855
0.823,0.331,-0.084,-36.438,7.812,12.878
0.831,0.34,-0.098,-29.907,7.263,12.085
0.838,0.342,-0.118,-22.278,8.545,12.146
0.868,0.282,-0.076,-14.832,11.719,12.207
0.954,0.305,0.003,-7.751,10.437,8.789
0.967,0.284,-0.014,-3.418,0.549,8.972
0.956,0.253,-0.067,-1.221,-9.033,9.888
0.926,0.21,-0.112,-0.793,-13.428,10.498
0.892,0.181,-0.165,-1.465,-12.146,8.24
0.86,0.163,-0.211,-3.845,-4.761,4.211
0.837,0.146,-0.228,-7.019,9.216,-1.587
0.868,0.153,-0.162,-11.475,26.428,-8.118
0.947,0.189,-0.013,-16.602,37.781,-12.573
0.972,0.211,0.038,-21.545,35.095,-13.916
0.966,0.249,0.037,-23.926,25.208,-13.184
0.946,0.287,0.023,-23.926,16.296,-9.644
0.931,0.284,0.014,-21.79,9.766,-4.028
0.949,0.259,0.043,-17.639,4.272,0.366
0.904,0.243,-0.016,-12.573,-3.479,2.38
0.802,0.254,-0.18,-8.911,-6.775,2.075
0.913,0.27,-0.08,-5.92,3.906,2.625
0.996,0.211,0.067,-2.625,9.46,4.028
0.926,0.183,-0.051,0.183,-2.625,1.709
0.895,0.156,-0.122,2.258,-8.179,-0.61
0.873,0.172,-0.11,2.075,-4.7,-3.418
0.955,0.22,-0.025,0.916,-0.488,-2.93
0.967,0.177,0.057,-0.305,-3.235,1.343
0.946,0.172,0.031,-0.305,-14.526,3.113
0.892,0.204,-0.071,0.244,-24.414,5.981
0.801,0.167,-0.13,0.122,-22.888,10.254
0.784,0.178,-0.123,2.563,-11.292,10.742
0.803,0.259,-0.102,5.432,1.831,12.512
0.807,0.275,-0.08,6.897,14.038,20.691
0.82,0.123,0.0,9.338,23.56,26.978
0.958,0.224,0.099,13.855,23.315,20.386
0.901,0.192,-0.005,12.207,12.39,20.447
0.909,0.209,-0.031,7.751,6.409,16.296
0.905,0.192,-0.06,5.737,4.944,13.611
0.892,0.228,-0.109,5.188,4.15,8.301
0.885,0.237,-0.158,5.554,6.958,5.371
0.879,0.239,-0.187,5.432,13.916,3.662
0.891,0.236,-0.188,5.554,22.888,2.441
0.915,0.237,-0.163,6.104,30.762,-0.854
0.946,0.255,-0.139,7.08,34.79,-4.089
0.985,0.271,-0.114,7.874,34.729,-5.676
1.027,0.279,-0.075,8.972,30.518,-5.859
1.041,0.283,-0.074,9.949,21.301,-5.188
1.029,0.28,-0.107,10.559,10.62,-3.601
1.012,0.26,-0.144,10.193,3.113,-2.319
0.991,0.234,-0.167,9.338,0.305,-2.136
0.981,0.222,-0.168,8.057,0.793,-4.15
0.979,0.228,-0.158,6.104,2.441,-7.446
0.979,0.24,-0.149,4.272,4.15,-9.888
0.978,0.253,-0.14,2.319,5.554,-10.376
0.977,0.259,-0.132,1.038,6.287,-9.277
0.975,0.256,-0.129,0.793,6.714,-7.629
0.985,0.247,-0.111,1.221,7.08,-6.226
0.991,0.239,-0.094,1.526,6.287,-5.31
0.989,0.239,-0.084,1.587,4.15,-4.395
0.976,0.24,-0.095,0.854,1.77,-2.747
0.972,0.214,-0.082,0.061,0.854,-1.099
0.266,-0.735,2.191,93.689,47.729,0.244
0.247,-1.044,2.402,60.608,56.274,19.897
0.239,-1.084,2.596,7.812,68.237,45.898
0.195,-0.951,2.821,-41.077,80.322,71.167
0.296,-0.724,2.95,-81.97,95.215,96.985
0.414,-0.478,3.033,-98.145,104.37,120.789
0.521,-0.315,3.106,-95.52,109.863,132.019
0.594,-0.207,3.15,-79.956,114.441,130.615
0.576,-0.114,3.146,-56.213,116.394,115.723
0.382,-0.026,3.051,-32.104,115.784,93.933
0.178,-0.021,2.85,-10.986,120.422,77.759
-0.003,-0.12,2.58,1.648,136.597,70.557
-0.147,-0.292,2.336,1.16,166.077,68.42
-0.233,-0.458,2.1,-13.245,202.026,65.369
-0.286,-0.536,1.871,-31.555,237.976,52.795
-0.289,-0.449,1.638,-46.448,271.606,31.494
-0.253,-0.34,1.389,-56.763,300.049,15.32
-0.204,-0.314,1.185,-62.378,324.768,7.874
-0.123,-0.273,1.05,-63.416,344.055,3.601
-0.131,-0.234,0.851,-61.829,353.821,3.723
-0.102,-0.278,0.745,-58.411,360.107,6.104
-0.016,-0.331,0.685,-52.002,359.009,2.93
0.007,-0.321,0.525,-43.03,345.947,-5.005
0.021,-0.237,0.392,-30.579,330.933,-11.963
0.02,-0.138,0.224,-12.573,315.308,-15.686
0.049,-0.029,0.08,9.766,301.086,-15.991
0.121,0.055,-0.037,37.109,288.513,-11.719
0.23,0.061,-0.109,64.453,275.33,-4.639
0.338,0.013,-0.137,87.036,257.996,4.272
0.417,-0.049,-0.162,102.112,234.619,14.832
0.449,-0.136,-0.229,107.849,206.665,25.513
0.458,-0.274,-0.37,103.455,179.26,35.645
0.475,-0.401,-0.468,92.041,160.889,39.307
0.477,-0.494,-0.518,74.463,150.635,36.316
0.478,-0.505,-0.52,51.27,145.081,28.687
0.536,-0.45,-0.364,25.94,140.686,19.348
0.562,-0.331,-0.231,1.953,125.793,12.695
0.505,-0.224,-0.212,-18.86,101.013,13.306
0.387,-0.137,-0.272,-33.936,78.43,17.395
0.326,-0.033,-0.258,-39.551,66.956,22.583
0.266,0.055,-0.252,-36.255,60.242,29.053
0.275,0.086,-0.217,-28.687,54.688,36.682
0.267,0.069,-0.136,-18.494,49.377,42.725
0.214,0.052,-0.199,-7.935,37.109,43.03
0.159,0.041,-0.299,1.16,30.273,38.574
0.145,0.017,-0.337,7.935,35.034,32.593
0.179,-0.009,-0.302,12.573,45.593,24.963
0.253,-0.026,-0.26,16.541,53.711,15.137
0.317,-0.011,-0.228,20.081,56.58,5.066
0.359,0.025,-0.216,23.621,54.749,-1.221
0.393,0.051,-0.218,25.574,50.415,-2.258
0.421,0.055,-0.223,26.55,44.983,0.793
0.448,0.05,-0.218,26.978,39.124,5.493
0.475,0.046,-0.202,25.513,32.654,10.315
0.499,0.043,-0.19,21.606,24.902,14.648
0.509,0.051,-0.189,15.442,17.09,18.921
0.512,0.065,-0.201,8.301,11.169,21.912
0.52,0.081,-0.215,1.038,8.301,23.743
0.537,0.092,-0.218,-5.981,8.057,23.926
0.562,0.101,-0.212,-12.39,9.766,22.339
0.594,0.129,-0.187,-17.395,12.329,19.958
0.629,0.163,-0.158,-20.325,14.465,18.433
0.656,0.183,-0.152,-21.79,14.587,17.822
0.664,0.198,-0.164,-22.583,14.282,18.311
0.685,0.208,-0.181,-22.4,15.015,19.348
0.712,0.217,-0.199,-21.179,17.273,19.958
0.754,0.232,-0.197,-19.653,20.325,19.409
0.821,0.245,-0.187,-18.433,21.912,19.104
0.882,0.246,-0.195,-18.494,22.034,19.47
0.919,0.244,-0.208,-20.447,22.095,20.63
0.95,0.236,-0.19,-23.132,22.705,21.79
0.997,0.22,-0.141,-25.146,21.301,21.24
1.018,0.203,-0.117,-25.757,15.625,17.761
1.015,0.205,-0.143,-24.902,7.385,12.268
1.015,0.223,-0.153,-23.56,1.892,7.385
0.965,0.247,-0.215,-20.996,-0.244,4.028
0.904,0.249,-0.304,-17.151,5.798,2.686
0.976,0.22,-0.161,-11.963,22.461,2.441
1.126,0.169,0.102,-4.7,29.297,1.526
1.14,0.128,0.118,3.052,10.925,-1.343
1.054,0.139,-0.072,9.094,-12.207,-3.418
1.032,0.114,-0.11,12.329,-17.151,-0.427
1.04,0.052,-0.088,13.245,-13.489,3.174
1.004,0.02,-0.134,12.573,-10.803,4.761
1.028,0.042,-0.116,10.254,-4.211,5.371
1.153,0.035,0.05,6.042,2.563,8.24
1.145,0.026,0.075,-0.671,-3.479,10.376
1.108,0.035,0.013,-9.216,-15.442,11.902
1.089,0.049,0.023,-17.029,-21.118,11.475
1.075,0.118,0.009,-22.827,-25.085,9.521
1.074,0.138,0.01,-26.55,-26.733,10.498
1.09,0.112,0.071,-27.161,-26.489,9.583
1.092,0.134,0.063,-23.682,-30.945,5.31
1.05,0.19,-0.023,-18.86,-35.889,1.77
1.005,0.226,-0.082,-13.977,-32.776,1.404
0.964,0.19,-0.099,-9.094,-22.156,3.845
0.958,0.146,-0.072,-3.54,-8.789,4.028
0.96,0.122,-0.059,0.854,1.831,1.343
0.988,0.124,0.018,2.808,11.23,-1.099
1.004,0.12,0.072,3.113,13.855,-1.77
1.012,0.112,0.091,2.441,9.46,-1.343
1.01,0.111,0.074,2.502,2.197,-0.488
0.991,0.117,0.027,2.686,-4.211,0.793
0.97,0.111,-0.012,2.502,-6.47,2.136
0.953,0.108,-0.036,2.625,-5.005,2.808
0.946,0.119,-0.048,3.601,-1.587,1.648
0.944,0.129,-0.057,4.211,2.686,0.0
0.954,0.133,-0.049,4.089,7.08,-0.793
0.967,0.135,-0.026,3.662,10.132,-0.793
0.974,0.134,-0.012,2.991,9.705,-0.671
0.97,0.134,-0.022,2.014,6.592,0.061
0.954,0.135,-0.044,1.099,3.54,1.343
0.936,0.128,-0.066,0.488,2.258,2.319
0.928,0.122,-0.078,-0.305,3.784,2.869
0.941,0.121,-0.065,-1.221,6.653,2.747
0.956,0.127,-0.04,-2.197,9.094,2.563
0.974,0.132,-0.012,-3.357,8.972,3.601
0.984,0.133,0.015,-4.7,5.981,5.432
0.98,0.133,0.018,-5.676,0.488,6.592
0.265,-0.551,2.028,-43.945,17.029,60.425
0.367,-0.31,2.205,-71.899,19.409,85.266
0.386,-0.097,2.483,-80.322,14.404,110.535
0.378,-0.042,2.779,-77.759,1.038,129.883
0.41,-0.091,2.872,-71.35,-15.747,142.456
0.196,-0.162,2.807,-61.34,-24.78,133.667
-0.096,-0.064,2.686,-43.213,-11.475,100.22
-0.206,0.008,2.65,-19.287,27.771,70.984
-0.221,-0.181,2.739,-1.709,86.609,49.377
-0.205,-0.31,2.835,8.667,144.897,28.748
-0.154,-0.336,2.91,3.174,192.993,20.752
-0.088,-0.418,2.915,-13.611,229.187,23.56
-0.079,-0.463,2.715,-30.762,252.686,24.353
-0.166,-0.501,2.413,-44.861,274.109,18.25
0.107,-0.219,2.377,-51.636,296.082,7.568
0.101,-0.177,2.119,-56.641,299.561,13.306
-0.048,-0.2,1.781,-58.472,299.866,21.667
-0.045,-0.238,1.63,-54.81,308.594,26.184
-0.055,-0.207,1.434,-48.218,309.998,24.231
-0.157,-0.21,1.165,-40.405,306.946,23.499
-0.151,-0.253,0.956,-32.898,310.242,21.301
-0.119,-0.287,0.788,-26.367,315.674,15.259
-0.095,-0.276,0.642,-20.081,317.871,7.324
-0.071,-0.187,0.513,-14.038,315.063,0.793
-0.035,-0.119,0.396,-5.981,308.472,-1.77
0.02,-0.051,0.294,4.944,298.828,-2.869
0.109,-0.002,0.192,18.738,283.63,0.0
0.193,-0.033,0.116,30.151,264.404,7.996
0.167,-0.111,-0.004,37.598,240.784,15.442
0.094,-0.19,-0.189,39.978,218.811,19.653
0.059,-0.227,-0.277,37.537,208.008,21.179
0.091,-0.233,-0.233,32.288,203.186,21.545
0.135,-0.284,-0.182,21.729,192.505,23.437
0.202,-0.219,-0.18,6.104,175.537,25.94
0.218,-0.221,-0.12,-10.803,157.288,34.79
0.207,-0.216,-0.197,-25.085,133.484,37.842
0.186,-0.21,-0.212,-33.508,117.31,39.917
0.12,-0.17,-0.274,-36.255,106.201,37.781
0.104,-0.061,-0.304,-33.63,101.868,32.654
0.177,0.039,-0.179,-28.992,102.783,28.992
0.172,0.031,-0.15,-24.536,94.666,29.053
0.106,-0.077,-0.225,-22.156,82.275,29.236
0.078,-0.196,-0.245,-24.841,76.721,26.184
0.08,-0.252,-0.269,-32.349,75.928,19.104
0.113,-0.231,-0.291,-41.321,76.782,9.46
0.167,-0.14,-0.293,-49.316,78.613,2.502
0.241,-0.035,-0.289,-54.565,78.735,-1.16
0.307,0.059,-0.308,-54.932,74.707,-1.831
0.368,0.138,-0.328,-51.025,69.214,-0.916
0.444,0.2,-0.315,-42.542,63.049,0.244
0.528,0.262,-0.279,-29.419,54.26,1.16
0.612,0.318,-0.266,-12.878,41.26,2.747
0.662,0.344,-0.289,5.615,26.733,5.249
0.673,0.34,-0.342,24.231,13.55,9.094
0.669,0.321,-0.397,43.213,5.859,13.428
0.671,0.283,-0.404,60.852,5.066,17.578
0.689,0.208,-0.366,72.876,8.484,22.278
0.706,0.12,-0.328,77.576,11.536,27.1
0.729,0.036,-0.298,74.707,13.428,30.09
0.752,-0.027,-0.28,64.758,15.808,30.151
0.779,-0.06,-0.257,48.767,18.86,26.917
0.825,-0.034,-0.212,30.64,21.423,21.729
0.855,0.021,-0.197,13.062,21.729,17.395
0.87,0.081,-0.207,-2.869,21.667,16.541
0.912,0.135,-0.174,-16.235,23.56,17.517
0.961,0.178,-0.136,-26.428,23.865,18.25
0.976,0.234,-0.134,-32.959,19.897,17.761
1.013,0.306,-0.075,-36.682,14.954,16.968
1.055,0.369,-0.026,-37.354,6.226,17.517
1.002,0.38,-0.104,-35.339,-6.165,20.325
0.963,0.36,-0.148,-30.518,-10.742,22.461
0.98,0.357,-0.114,-22.949,-7.141,20.935
0.977,0.369,-0.108,-15.808,-4.15,17.944
0.956,0.356,-0.088,-9.888,-0.366,15.991
0.938,0.302,-0.034,-4.883,3.967,13.794
0.911,0.257,-0.013,-1.038,6.104,9.644
0.911,0.235,0.018,0.0,8.301,4.089
0.925,0.208,0.054,-1.16,10.803,-0.366
0.922,0.188,0.053,-2.014,12.512,-4.333
0.875,0.144,0.022,-2.747,14.648,-7.751
0.976,0.165,0.14,-3.357,18.799,-11.78
1.069,0.172,0.309,-3.113,13.489,-13.489
0.958,0.218,0.085,-3.662,-8.789,-13.184
0.977,0.279,-0.023,-5.676,-17.761,-6.042
1.056,0.324,0.288,-4.883,-13.55,5.92
0.889,0.193,-0.264,-2.808,-30.579,18.311
0.973,-0.034,0.059,2.686,-17.7,20.996
0.989,0.152,-0.018,10.132,-16.113,7.202
1.005,0.245,0.069,7.812,-17.395,2.93
1.044,0.161,0.166,1.099,-14.954,8.179
0.947,0.083,0.021,-3.601,-24.048,9.949
0.944,0.113,0.03,-7.446,-22.888,5.066
0.995,0.165,0.14,-11.536,-17.151,1.282
0.979,0.184,0.132,-16.174,-20.447,0.549
0.937,0.169,0.058,-19.897,-24.231,1.709
0.908,0.171,0.025,-21.545,-20.935,1.77
0.895,0.203,-0.002,-22.461,-12.817,1.038
0.915,0.225,0.031,-24.963,-2.319,0.671
0.957,0.234,0.102,-26.428,6.104,-0.427
0.95,0.242,0.103,-26.062,7.935,-2.625
0.956,0.271,0.083,-23.865,7.019,-6.165
1.011,0.333,0.145,-19.897,6.775,-8.911
1.032,0.411,0.143,-14.282,0.427,-7.996
0.968,0.391,0.038,-7.019,-8.301,-2.93
0.974,0.314,0.037,2.869,-9.949,0.122
0.977,0.268,0.025,12.573,-9.399,-1.648
0.956,0.252,-0.003,18.494,-8.179,-4.639
0.96,0.219,0.035,20.569,-3.296,-5.92
0.967,0.177,0.088,19.409,0.488,-5.676
0.956,0.143,0.095,15.137,0.061,-5.859
0.952,0.135,0.094,9.644,-0.916,-6.592
0.943,0.141,0.098,3.174,-0.183,-7.202
0.936,0.143,0.099,-3.052,0.671,-7.446
0.94,0.165,0.096,-6.836,1.221,-7.812
0.94,0.205,0.079,-7.935,1.282,-8.24
0.939,0.227,0.052,-7.019,1.953,-6.836
0.927,0.227,0.019,-4.517,3.967,-4.517
0.922,0.216,-0.01,-1.221,7.629,-3.052
0.941,0.208,-0.001,2.625,12.39,-3.052
0.219,-0.854,2.071,58.472,1.404,21.24
0.12,-0.938,2.314,18.86,3.113,50.537
-0.032,-0.95,2.545,-17.639,8.423,79.468
-0.07,-0.825,2.718,-50.11,17.09,107.361
-0.095,-0.809,2.934,-62.439,24.78,127.075
-0.051,-0.855,3.16,-64.575,38.269,129.7
-0.036,-0.836,3.341,-57.129,62.378,116.577
-0.085,-0.681,3.454,-42.786,98.022,98.877
-0.075,-0.55,3.518,-30.212,145.569,88.745
-0.033,-0.499,3.486,-20.447,194.702,90.21
-0.064,-0.482,3.386,-15.198,237.854,97.778
-0.105,-0.469,3.241,-12.268,278.32,100.83
-0.133,-0.425,3.017,-7.69,314.758,94.604
-0.139,-0.336,2.838,2.38,344.788,83.74
-0.164,-0.271,2.657,14.465,365.051,77.637
-0.101,-0.281,2.44,23.56,369.934,79.041
-0.118,-0.26,2.199,29.724,360.168,82.764
-0.235,-0.212,2.067,29.297,340.454,88.806
-0.323,-0.243,1.806,20.874,301.819,97.473
-0.41,-0.349,1.036,13.123,245.605,98.267
-0.651,-0.328,0.384,16.418,210.388,83.557
-0.786,-0.236,-0.085,29.663,209.595,77.698
-0.762,-0.202,-0.451,39.063,233.337,80.444
-0.583,-0.259,-0.487,43.579,269.958,83.618
-0.378,-0.354,-0.47,40.1,301.147,92.224
-0.2,-0.299,-0.435,31.25,317.688,95.032
0.046,-0.225,-0.235,18.982,318.542,98.206
0.146,-0.154,-0.278,7.385,293.64,101.257
0.179,-0.097,-0.381,-0.916,262.451,106.934
0.227,-0.094,-0.421,-5.432,237.976,112.915
0.266,-0.1,-0.467,-6.775,214.6,114.441
0.286,-0.079,-0.58,-7.507,191.895,112.183
0.292,-0.05,-0.664,-10.132,176.941,109.68
0.339,-0.02,-0.686,-13.855,170.837,105.042
0.443,-0.005,-0.6,-18.311,166.321,97.046
0.515,0.003,-0.528,-23.01,154.541,86.121
0.522,0.022,-0.5,-27.771,136.23,71.472
0.487,0.051,-0.48,-31.006,116.455,56.274
0.403,0.092,-0.437,-31.738,99.487,44.373
0.247,0.139,-0.508,-27.954,85.205,37.842
0.218,0.175,-0.453,-20.874,82.153,36.682
0.298,0.151,-0.287,-13.306,82.581,38.696
0.306,0.124,-0.244,-5.737,71.106,40.283
0.257,0.107,-0.295,1.77,55.481,39.917
0.228,0.078,-0.359,7.385,46.875,37.903
0.269,0.044,-0.331,12.146,46.753,33.691
0.337,0.025,-0.253,15.747,45.532,27.405
0.368,0.035,-0.241,17.029,36.865,21.851
0.376,0.061,-0.262,17.151,25.574,19.287
0.401,0.082,-0.29,15.503,16.724,20.386
0.443,0.089,-0.31,10.742,12.024,23.621
0.469,0.1,-0.299,3.845,11.353,26.733
0.476,0.118,-0.285,-4.456,11.475,28.015
0.45,0.157,-0.302,-14.404,12.329,26.917
0.442,0.218,-0.288,-24.78,16.724,25.513
0.468,0.276,-0.213,-33.875,22.4,24.841
0.483,0.314,-0.182,-39.856,22.278,24.475
0.479,0.328,-0.209,-43.152,19.958,22.949
0.57,0.363,-0.103,-45.532,20.569,18.555
0.717,0.397,0.037,-46.57,12.939,14.587
0.727,0.385,-0.078,-46.509,-10.071,11.658
0.674,0.394,-0.267,-42.236,-27.344,7.08
0.595,0.419,-0.426,-33.752,-24.963,1.648
0.602,0.452,-0.413,-24.597,-5.371,-0.671
0.682,0.425,-0.266,-16.479,16.846,2.197
0.757,0.347,-0.195,-10.071,25.574,5.554
0.814,0.321,-0.099,-7.874,23.01,6.287
0.81,0.296,-0.12,-9.033,13.55,7.141
0.667,0.24,-0.368,-11.475,6.714,7.263
0.648,0.248,-0.362,-14.587,24.963,4.761
0.893,0.284,0.05,-17.578,50.659,2.075
0.976,0.241,0.112,-21.851,42.297,2.686
0.808,0.226,-0.171,-26.55,20.63,2.93
1.082,0.302,0.227,-31.006,19.531,2.808
1.271,0.359,0.401,-35.95,-9.155,7.874
0.975,0.308,-0.187,-40.527,-62.378,17.334
0.862,0.282,-0.382,-43.091,-70.984,22.888
1.063,0.324,-0.001,-41.443,-44.739,20.813
1.069,0.362,-0.029,-39.246,-47.974,16.296
1.013,0.37,-0.078,-37.476,-55.847,14.282
0.976,0.354,-0.097,-35.156,-54.932,11.597
0.962,0.373,-0.101,-30.823,-49.011,6.409
0.97,0.405,-0.08,-25.513,-39.124,2.014
0.95,0.397,-0.076,-20.02,-28.87,0.305
0.946,0.368,-0.084,-13.0,-18.005,-2.563
1.006,0.359,-0.022,-6.226,-6.104,-6.592
1.067,0.339,0.05,-0.977,-0.305,-9.094
1.089,0.304,0.087,2.563,-2.991,-9.705
1.076,0.272,0.084,5.188,-11.047,-9.705
1.032,0.245,0.038,7.202,-19.714,-9.766
0.992,0.223,-0.003,8.423,-23.499,-9.949
0.975,0.203,-0.004,9.155,-20.935,-9.521
0.981,0.18,0.024,9.521,-15.808,-8.85
0.998,0.156,0.062,9.338,-12.268,-8.667
1.001,0.14,0.089,8.423,-11.597,-8.24
0.99,0.129,0.088,6.226,-12.756,-7.507
0.958,0.129,0.08,3.235,-12.939,-6.042
0.932,0.141,0.085,0.793,-10.681,-4.517
0.92,0.149,0.094,-0.854,-6.836,-2.991
0.914,0.155,0.1,-2.441,-3.235,-2.197
0.914,0.168,0.101,-2.869,-0.549,-2.075
0.942,0.187,0.116,-2.93,1.709,-2.136
0.959,0.193,0.108,-2.808,1.892,-0.916
0.957,0.185,0.065,-2.38,0.671,0.671
0.973,0.192,0.058,-1.282,1.343,1.282
0.995,0.206,0.083,-0.854,1.953,1.343
0.972,0.211,0.044,-1.038,-0.61,2.625
0.967,0.215,0.036,-1.709,-1.587,4.028
0.973,0.224,0.058,-2.441,-1.038,4.456
0.968,0.233,0.047,-2.502,-2.991,3.723
0.981,0.245,0.059,-2.563,-4.761,3.235
0.96,0.244,0.024,-3.235,-7.019,3.052
0.955,0.24,0.008,-4.272,-6.653,2.502
0.959,0.244,0.027,-5.249,-3.967,1.038
0.966,0.258,0.055,-5.859,-2.197,-0.732
0.972,0.268,0.066,-6.104,-2.747,-1.648
0.962,0.273,0.051,-6.47,-4.456,-1.709
0.957,0.281,0.033,-6.287,-5.493,-1.892
0.963,0.293,0.035,-5.615,-4.578,-1.831
0.339,-0.454,2.424,127.686,25.452,-1.221
0.196,-0.758,2.699,126.648,36.987,8.484
0.092,-0.972,2.958,105.225,56.824,30.457
-0.098,-1.319,3.199,78.247,67.932,67.017
-0.185,-1.676,3.34,33.02,75.867,104.553
-0.172,-1.749,3.213,-29.175,90.515,134.583
-0.202,-1.46,2.934,-88.379,121.521,136.169
-0.102,-1.012,2.679,-127.625,178.65,114.38
0.099,-0.556,2.69,-132.629,248.413,88.44
0.363,-0.208,2.994,-111.877,308.411,69.458
0.716,0.043,3.398,-80.2,327.454,65.979
0.531,-0.088,2.834,-50.171,292.236,79.834
0.172,-0.205,2.374,-22.705,272.156,87.219
0.031,-0.284,2.025,-3.418,277.161,82.642
0.062,-0.287,1.756,10.986,288.208,71.594
0.057,-0.281,1.502,26.489,297.424,61.462
0.023,-0.307,1.279,36.499,304.016,55.908
-0.016,-0.38,1.073,39.551,307.129,56.091
-0.069,-0.474,0.899,35.461,308.228,59.021
-0.145,-0.602,0.685,23.376,306.396,60.974
-0.18,-0.662,0.498,5.676,306.641,58.533
-0.13,-0.642,0.375,-15.747,310.486,55.969
-0.061,-0.562,0.237,-41.443,311.523,55.481
-0.006,-0.472,0.125,-62.744,306.763,54.382
0.034,-0.334,0.03,-72.998,297.852,51.453
0.08,-0.175,-0.048,-73.242,285.4,47.852
0.212,-0.071,-0.01,-63.171,268.066,46.692
0.186,0.003,-0.122,-44.434,238.525,46.265
0.173,0.062,-0.255,-24.78,208.496,50.049
0.19,0.03,-0.333,-6.897,186.34,56.946
0.226,-0.041,-0.365,7.446,168.274,60.547
0.309,-0.115,-0.306,19.409,151.55,61.584
0.329,-0.169,-0.283,25.94,128.723,61.096
0.354,-0.211,-0.287,23.132,101.746,63.232
0.381,-0.211,-0.253,16.357,75.745,64.575
0.337,-0.226,-0.292,5.981,47.119,59.937
0.242,-0.277,-0.374,-10.376,22.217,56.519
0.151,-0.256,-0.476,-25.452,10.315,50.72
0.07,-0.179,-0.516,-34.424,13.489,40.466
0.031,-0.119,-0.517,-39.49,28.137,28.381
0.04,-0.083,-0.496,-39.612,46.875,16.113
0.08,-0.038,-0.413,-34.668,65.735,4.578
0.171,0.037,-0.281,-24.17,76.721,-4.395
0.253,0.118,-0.209,-9.521,75.134,-8.606
0.295,0.149,-0.209,5.127,64.697,-5.92
0.302,0.118,-0.239,17.883,52.673,2.625
0.316,0.057,-0.253,28.625,44.25,10.742
0.364,-0.003,-0.236,36.804,38.818,15.32
0.41,-0.035,-0.218,40.649,34.241,17.456
0.443,-0.046,-0.218,40.161,29.48,18.86
0.489,-0.042,-0.202,36.072,24.597,20.081
0.542,-0.022,-0.171,29.663,19.287,20.935
0.584,-0.002,-0.178,22.217,12.085,21.24
0.62,0.029,-0.17,14.954,6.226,21.973
0.623,0.057,-0.187,7.08,2.502,23.804
0.609,0.066,-0.22,-0.61,1.587,25.391
0.609,0.069,-0.216,-8.789,6.104,24.414
0.628,0.095,-0.184,-15.32,11.597,19.958
0.659,0.144,-0.155,-19.775,14.954,14.282
0.693,0.186,-0.135,-22.156,15.991,10.803
0.727,0.214,-0.118,-23.804,15.686,10.132
0.764,0.234,-0.116,-23.499,14.465,11.719
0.808,0.241,-0.133,-20.874,13.184,15.076
0.837,0.238,-0.16,-17.578,13.123,18.921
0.85,0.237,-0.207,-13.794,14.648,21.667
0.885,0.231,-0.2,-10.437,19.043,23.254
0.954,0.221,-0.113,-8.545,22.278,23.499
1.003,0.221,-0.067,-7.507,16.602,22.217
1.009,0.206,-0.078,-8.179,4.395,21.179
0.961,0.166,-0.171,-10.254,-6.348,19.287
0.934,0.167,-0.233,-12.268,-8.545,14.587
0.963,0.186,-0.157,-14.832,-1.587,10.498
0.959,0.164,-0.148,-19.409,3.113,7.751
0.907,0.135,-0.207,-25.208,7.751,4.639
0.94,0.177,-0.078,-31.128,19.531,1.038
1.067,0.203,0.157,-36.682,22.888,0.305
0.95,0.213,-0.01,-40.161,5.676,-0.305
0.816,0.231,-0.187,-40.649,0.793,0.244
0.856,0.201,-0.126,-39.124,17.334,1.831
0.93,0.21,-0.003,-34.973,31.86,-0.305
1.092,0.238,0.245,-29.236,32.043,-1.221
1.092,0.224,0.165,-24.353,10.681,0.977
1.111,0.206,0.173,-18.799,-10.132,2.991
1.054,0.19,0.099,-13.184,-27.466,5.249
1.017,0.156,-0.005,-10.742,-38.94,7.141
1.066,0.175,0.115,-10.498,-38.94,8.179
1.083,0.202,0.145,-12.329,-44.006,11.719
1.026,0.153,0.049,-14.282,-51.208,16.663
1.013,0.088,0.007,-14.587,-48.462,17.761
0.921,0.106,-0.064,-13.733,-37.598,11.658
0.938,0.182,-0.007,-14.038,-20.935,3.479
0.98,0.233,0.099,-14.099,-6.287,-2.502
0.957,0.251,0.08,-13.733,-2.869,-5.798
0.946,0.25,0.065,-11.475,0.671,-8.423
0.989,0.249,0.142,-7.751,5.554,-10.925
1.014,0.252,0.182,-3.174,2.991,-12.207
1.006,0.251,0.133,1.465,-5.554,-12.085
0.982,0.239,0.068,5.066,-10.864,-9.644
0.961,0.203,0.029,7.996,-10.132,-6.348
0.953,0.157,0.015,10.62,-5.981,-5.371
0.952,0.133,0.009,12.39,-1.282,-7.141
0.951,0.139,0.004,12.939,3.479,-10.132
0.944,0.149,-0.017,11.78,8.484,-10.254
0.996,0.132,0.044,9.216,14.282,-7.141
1.031,0.083,0.121,6.775,15.259,-4.028
1.03,0.091,0.106,5.188,6.592,-4.089
0.986,0.102,0.051,3.296,-2.563,-3.113
0.942,0.09,-0.015,1.465,-5.432,-2.441
0.938,0.084,-0.019,0.488,-1.709,-2.502
0.935,0.079,-0.005,-0.61,4.395,-3.052
0.947,0.091,0.028,-1.465,8.972,-4.211
0.963,0.109,0.049,-1.953,9.949,-4.578
0.958,0.116,0.034,-2.441,8.362,-3.357
0.945,0.112,0.004,-3.113,7.446,-1.343
0.965,0.1,0.023,-3.174,8.24,-0.366
0.986,0.092,0.03,-2.38,7.324,-1.221
0.98,0.107,-0.003,-2.319,3.967,-2.563
0.979,0.123,-0.02,-4.211,3.235,-2.075
1.005,0.138,0.023,-5.981,4.456,-0.366
0.157,-0.924,2.436,77.515,82.52,37.781
0.181,-1.164,2.755,39.368,85.388,66.467
0.252,-1.27,3.172,4.15,75.012,94.543
0.173,-1.236,3.44,-8.789,35.95,109.924
0.171,-1.036,3.215,-28.564,-5.798,124.695
-0.025,-0.792,2.872,-44.434,-16.602,145.081
-0.345,-0.65,2.845,-45.654,17.212,150.757
-0.453,-0.87,2.923,-32.593,73.303,143.127
-0.334,-0.883,3.03,-19.47,133.24,107.788
-0.292,-0.805,3.024,-17.822,181.885,83.069
-0.395,-0.829,2.88,-31.006,221.191,82.397
-0.531,-0.873,2.467,-48.828,256.653,89.966
-0.572,-0.802,2.066,-62.683,298.523,88.501
-0.557,-0.67,1.717,-69.824,342.041,76.965
-0.419,-0.442,1.495,-69.763,377.502,61.035
-0.224,-0.338,1.388,-62.317,394.043,53.772
-0.241,-0.291,1.077,-46.143,383.85,50.781
-0.226,-0.261,0.824,-19.897,365.356,49.133
-0.195,-0.254,0.603,13.55,342.468,48.645
-0.203,-0.279,0.379,49.255,311.951,50.903
-0.246,-0.258,0.114,81.055,280.823,57.007
-0.268,-0.267,-0.113,107.788,256.836,69.092
-0.246,-0.346,-0.26,126.587,240.784,87.524
-0.193,-0.469,-0.403,140.137,226.013,107.117
-0.137,-0.526,-0.545,148.315,212.402,122.437
-0.061,-0.49,-0.59,150.085,204.102,136.23
0.065,-0.406,-0.552,145.63,195.557,152.283
0.282,-0.304,-0.448,135.864,178.284,173.706
0.356,-0.138,-0.46,120.3,149.963,201.599
0.41,0.038,-0.559,96.313,120.972,233.704
0.47,0.136,-0.557,64.758,103.149,265.259
0.542,0.164,-0.554,29.419,88.074,286.499
0.54,0.128,-0.606,-10.925,77.637,294.189
0.482,0.042,-0.596,-59.814,79.59,282.898
0.49,0.029,-0.467,-113.892,88.501,244.873
0.591,0.102,-0.277,-163.086,86.609,183.533
0.647,0.267,-0.29,-201.538,64.636,112.488
0.611,0.499,-0.52,-226.074,40.283,52.002
0.528,0.656,-0.722,-238.831,37.292,16.113
0.529,0.72,-0.765,-238.77,56.091,-2.197
0.611,0.759,-0.682,-227.051,82.275,-10.864
0.668,0.761,-0.549,-208.557,102.112,-11.78
0.696,0.715,-0.404,-187.378,109.558,-7.69
0.727,0.681,-0.261,-163.757,104.675,-3.479
0.731,0.698,-0.199,-139.221,88.074,0.122
0.732,0.714,-0.17,-115.784,67.688,6.226
0.747,0.634,-0.117,-93.933,47.913,13.0
0.785,0.532,-0.042,-70.862,26.306,13.794
0.806,0.523,-0.048,-49.683,0.916,9.277
0.76,0.462,-0.098,-34.912,-20.874,7.69
0.721,0.368,-0.087,-22.522,-35.156,4.272
0.682,0.326,-0.086,-11.597,-46.753,-2.319
0.635,0.301,-0.076,-5.188,-55.115,-8.057
0.576,0.26,-0.044,-2.869,-58.838,-11.536
0.521,0.241,-0.011,-2.991,-60.425,-13.855
0.497,0.235,0.006,-4.211,-60.12,-14.404
0.483,0.238,0.022,-6.592,-57.251,-12.817
0.454,0.23,0.029,-9.827,-50.781,-8.545
0.431,0.198,0.011,-13.0,-40.039,-3.174
0.445,0.166,0.004,-15.93,-24.963,0.427
0.48,0.175,0.023,-19.409,-7.507,1.099
0.526,0.154,0.055,-24.109,8.911,-0.427
0.583,0.16,0.131,-28.87,21.729,-5.859
0.67,0.237,0.21,-33.569,25.33,-12.634
0.734,0.31,0.245,-38.086,18.677,-14.954
0.693,0.299,0.156,-42.358,6.47,-12.634
0.682,0.299,0.09,-47.913,0.61,-10.254
0.74,0.249,0.133,-53.833,2.075,-9.583
0.752,0.261,0.117,-56.824,1.343,-16.968
0.732,0.356,0.038,-58.35,-0.793,-25.33
0.699,0.425,0.007,-59.265,3.967,-27.954
0.733,0.435,0.066,-56.274,11.902,-27.954
0.842,0.444,0.174,-48.035,14.221,-29.053
0.856,0.465,0.156,-36.438,5.249,-30.457
0.857,0.478,0.086,-22.949,-4.517,-30.029
0.867,0.468,0.066,-8.545,-8.24,-26.917
0.894,0.428,0.103,5.92,-9.705,-20.996
0.918,0.382,0.122,19.47,-13.733,-13.855
0.928,0.349,0.112,29.419,-20.691,-6.775
0.928,0.307,0.105,35.461,-26.306,0.183
0.941,0.266,0.107,38.208,-30.396,4.822
0.914,0.172,0.064,37.781,-33.325,7.202
0.888,0.129,0.03,34.546,-31.372,2.93
0.881,0.125,-0.021,27.649,-22.339,-3.479
0.865,0.102,-0.015,15.442,-7.141,-8.118
0.905,0.111,0.033,2.686,9.705,-13.916
0.937,0.143,0.115,-9.46,22.095,-18.86
1.044,0.229,0.249,-17.761,24.536,-23.254
1.071,0.265,0.277,-21.545,13.123,-22.4
1.046,0.321,0.182,-21.057,-4.333,-20.142
1.0,0.328,0.053,-17.578,-14.16,-14.099
0.976,0.278,0.011,-11.78,-12.329,-9.216
0.99,0.267,0.009,-3.479,-5.188,-9.033
0.993,0.254,0.049,3.845,2.075,-9.094
1.0,0.238,0.101,9.155,7.08,-8.179
0.993,0.208,0.132,11.108,7.446,-6.165
0.977,0.184,0.141,11.108,4.395,-4.761
0.977,0.185,0.137,10.376,0.671,-5.066
0.98,0.181,0.129,8.606,-2.747,-5.188
0.981,0.168,0.115,6.042,-4.883,-4.883
0.985,0.162,0.096,3.906,-5.554,-4.7
0.996,0.146,0.082,1.404,-4.211,-4.578
0.996,0.14,0.085,-1.465,-0.366,-4.944
0.996,0.153,0.101,-4.578,3.967,-6.165
0.999,0.171,0.132,-6.897,6.897,-7.629
1.008,0.189,0.169,-7.629,7.141,-8.667
1.003,0.217,0.171,-7.202,3.601,-8.545
0.977,0.235,0.138,-6.287,-0.488,-7.141
0.968,0.248,0.137,-4.395,-1.709,-4.7
0.98,0.241,0.156,-1.587,-2.502,-1.892
0.977,0.241,0.143,1.648,-4.883,-0.366
0.959,0.238,0.118,4.395,-7.629,0.977
0.946,0.23,0.104,7.019,-8.728,1.709
0.927,0.224,0.084,9.46,-8.789,1.77
0.9,0.225,0.062,11.841,-7.751,0.854
0.885,0.224,0.056,13.977,-4.883,0.488
0.879,0.216,0.064,15.198,-1.587,0.977
0.884,0.207,0.08,15.076,1.282,2.136
0.89,0.203,0.093,13.367,2.136,2.625
0.291,-0.64,2.125,69.58,72.693,4.883
0.267,-0.809,2.337,47.607,83.374,11.78
0.196,-0.894,2.568,24.719,95.032,15.503
0.194,-0.9,2.762,0.916,111.023,22.339
0.217,-0.822,2.927,-16.418,128.784,33.936
0.235,-0.714,2.998,-22.156,145.752,46.875
0.22,-0.576,2.969,-18.372,160.706,60.181
0.264,-0.517,2.899,-12.085,176.941,77.82
0.434,-0.648,2.854,-5.066,194.397,97.412
0.543,-0.851,2.871,5.371,206.909,107.056
0.499,-0.867,2.809,9.949,213.013,109.863
0.355,-0.839,2.735,-0.854,217.712,116.943
0.243,-0.87,2.634,-16.602,222.839,128.54
0.068,-1.015,2.468,-39.49,226.257,134.399
0.022,-0.883,2.226,-65.002,230.103,120.972
-0.027,-0.584,1.933,-83.984,234.802,103.027
-0.071,-0.378,1.736,-91.309,243.347,90.21
-0.144,-0.247,1.463,-86.548,245.972,80.322
-0.192,-0.2,1.169,-70.557,248.657,73.547
-0.226,-0.198,0.872,-49.5,253.784,68.237
-0.302,-0.19,0.571,-31.982,263.672,61.707
-0.337,-0.2,0.333,-15.869,280.884,52.856
-0.243,-0.202,0.192,-2.563,303.345,43.03
-0.084,-0.181,0.179,5.615,322.144,36.56
0.039,-0.18,0.179,7.202,327.393,36.255
0.085,-0.184,0.121,1.343,319.641,40.1
0.104,-0.15,0.082,-6.042,304.932,43.762
0.097,-0.115,-0.05,-11.169,283.508,46.021
0.147,-0.09,-0.152,-12.939,262.39,47.119
0.153,-0.144,-0.283,-11.475,243.896,48.035
0.123,-0.192,-0.491,-9.888,231.201,44.556
0.266,-0.203,-0.465,-7.019,231.262,36.56
0.379,-0.187,-0.394,-6.775,227.234,27.71
0.402,-0.149,-0.388,-10.559,212.891,20.874
0.403,-0.101,-0.373,-17.395,195.923,18.677
0.386,-0.052,-0.346,-25.208,177.307,18.921
0.377,-0.005,-0.286,-31.128,156.494,19.653
0.35,0.028,-0.266,-33.203,132.141,19.958
0.298,0.041,-0.304,-32.288,106.812,19.653
0.234,0.046,-0.393,-29.541,87.402,18.86
0.226,0.034,-0.402,-23.621,78.369,17.578
0.267,0.044,-0.366,-13.672,72.205,13.977
0.307,0.05,-0.398,-1.953,62.012,10.681
0.277,0.059,-0.555,8.667,52.49,8.85
0.318,0.022,-0.565,15.808,56.274,10.254
0.394,-0.055,-0.415,20.813,64.27,10.803
0.411,-0.113,-0.395,23.987,57.8,6.653
0.419,-0.111,-0.407,25.574,46.021,0.183
0.448,-0.068,-0.371,25.635,36.133,-3.357
0.475,-0.03,-0.351,24.353,25.33,-2.563
0.513,-0.003,-0.336,23.682,13.428,1.282
0.548,0.013,-0.299,25.391,1.404,6.409
0.555,0.028,-0.302,28.931,-12.573,12.329
0.552,0.035,-0.327,33.386,-25.94,17.273
0.59,0.007,-0.351,38.269,-35.156,21.179
0.574,0.029,-0.343,42.114,-40.466,24.963
0.609,0.012,-0.368,48.95,-45.227,28.564
0.638,-0.013,-0.416,53.65,-46.631,28.748
0.627,-0.06,-0.48,55.786,-41.565,28.992
0.645,-0.173,-0.436,51.514,-27.283,28.503
0.721,-0.21,-0.318,44.861,-13.489,22.766
0.747,-0.195,-0.264,31.433,-9.216,19.348
0.758,-0.209,-0.235,11.597,-7.751,18.799
0.75,-0.211,-0.22,-11.292,-5.92,19.958
0.752,-0.158,-0.228,-34.973,-1.831,22.4
0.754,-0.099,-0.24,-58.777,7.507,28.015
0.768,-0.041,-0.202,-80.627,21.484,34.424
0.851,0.022,-0.087,-99.06,34.485,40.527
0.851,-0.037,-0.028,-114.868,39.49,44.373
0.915,0.04,0.094,-125.427,36.926,36.438
0.94,0.209,0.078,-130.92,24.902,29.663
0.871,0.338,-0.01,-135.681,13.855,30.64
0.867,0.355,-0.041,-136.292,12.268,34.973
0.894,0.342,-0.026,-130.493,15.747,34.302
0.88,0.38,-0.085,-121.094,18.005,28.076
0.793,0.432,-0.249,-109.802,25.452,20.935
0.801,0.491,-0.352,-98.999,49.133,15.869
0.983,0.495,-0.057,-85.388,81.97,14.038
1.009,0.476,-0.012,-68.604,88.928,9.888
1.051,0.474,-0.013,-49.438,79.102,3.967
1.005,0.473,-0.113,-30.396,65.857,-0.366
1.174,0.449,0.059,-12.573,57.007,-1.709
1.261,0.403,0.22,3.906,31.738,-2.563
1.145,0.479,-0.012,15.625,-12.024,-0.671
0.95,0.429,-0.382,22.034,-39.673,12.451
0.793,0.214,-0.543,27.649,-28.076,22.522
0.911,0.084,-0.334,36.377,2.686,16.907
1.061,0.163,-0.167,42.725,15.259,2.563
1.045,0.251,-0.22,39.612,8.545,-2.014
0.996,0.205,-0.281,32.959,4.578,4.395
1.021,0.117,-0.162,30.396,7.751,7.874
1.035,0.086,-0.112,30.151,0.732,3.54
1.032,0.146,-0.147,28.32,-14.099,-3.174
0.995,0.178,-0.2,24.719,-24.78,-4.333
1.022,0.146,-0.123,21.057,-29.114,-2.075
1.023,0.151,-0.115,20.02,-37.72,-1.648
0.963,0.174,-0.24,17.517,-48.828,0.549
0.893,0.144,-0.303,14.648,-47.485,4.028
0.854,0.136,-0.295,13.123,-35.828,5.005
0.807,0.119,-0.359,12.512,-21.912,3.723
0.78,0.113,-0.366,11.536,-1.892,-1.16
0.945,0.17,-0.122,11.292,20.081,-5.493
0.972,0.193,-0.036,9.399,21.24,-5.31
0.982,0.206,-0.07,8.85,9.521,-2.991
0.959,0.172,-0.116,8.423,-1.221,2.136
0.953,0.124,-0.169,9.094,-6.531,3.54
0.906,0.128,-0.26,8.301,-7.507,1.831
0.932,0.143,-0.215,5.676,-0.549,0.854
0.963,0.149,-0.141,2.686,5.371,0.732
0.954,0.151,-0.14,0.0,4.211,1.526
0.936,0.144,-0.163,-1.77,1.221,2.38
0.921,0.142,-0.181,-3.174,0.854,2.258
0.945,0.155,-0.16,-4.211,2.502,1.404
0.961,0.178,-0.136,-4.578,3.113,0.488
0.982,0.184,-0.116,-4.639,1.16,1.221
0.98,0.169,-0.098,-3.845,-2.869,2.136
0.966,0.165,-0.12,-2.319,-8.423,2.258
0.963,0.158,-0.144,-1.16,-12.39,2.014
0.948,0.144,-0.161,-0.427,-12.817,2.136
0.24,-0.842,2.143,74.219,53.223,36.804
0.316,-1.002,2.339,61.523,52.795,61.157
0.349,-1.222,2.611,51.514,48.34,77.759
0.364,-1.411,2.896,35.828,45.227,88.013
0.33,-1.464,3.117,14.099,40.161,100.159
0.197,-1.27,3.219,-11.169,31.616,114.075
0.051,-1.034,3.205,-25.513,26.001,130.554
-0.034,-1.032,3.017,-37.659,30.579,151.794
-0.131,-1.051,2.78,-47.241,48.523,161.682
-0.237,-1.214,2.669,-50.598,86.182,160.706
-0.264,-1.216,2.685,-61.157,136.841,145.02
-0.284,-0.935,2.494,-78.003,179.749,128.906
-0.276,-0.813,2.304,-97.9,219.91,125.549
-0.297,-0.586,2.117,-110.657,256.47,115.479
-0.089,-0.343,2.11,-112.244,279.846,105.652
-0.169,-0.189,1.686,-107.971,275.696,102.783
-0.215,-0.195,1.321,-97.229,275.818,105.042
-0.224,-0.233,1.09,-79.956,283.936,102.051
-0.204,-0.182,0.824,-60.73,286.255,91.858
-0.193,-0.112,0.573,-42.786,287.17,83.801
-0.172,-0.11,0.387,-27.1,290.771,80.872
-0.145,-0.223,0.26,-15.686,293.335,78.796
-0.118,-0.317,0.129,-9.338,290.649,70.801
-0.09,-0.312,-0.037,-9.216,285.828,59.692
-0.022,-0.261,-0.151,-15.076,282.654,52.185
0.046,-0.244,-0.25,-23.987,280.029,49.5
0.123,-0.183,-0.299,-34.058,276.672,48.523
0.226,-0.146,-0.268,-41.748,268.982,51.147
0.256,-0.094,-0.341,-46.326,252.075,52.063
0.296,-0.042,-0.411,-48.218,235.535,53.955
0.346,-0.001,-0.4,-47.607,222.229,57.19
0.41,-0.007,-0.408,-45.227,204.712,58.35
0.447,-0.045,-0.477,-42.053,184.57,55.847
0.505,-0.059,-0.484,-38.879,169.25,50.537
0.579,-0.026,-0.467,-37.476,156.555,46.448
0.607,-0.048,-0.469,-39.49,144.104,48.157
0.614,-0.107,-0.499,-42.48,133.789,49.133
0.615,-0.139,-0.429,-47.18,128.174,48.035
0.624,-0.092,-0.326,-53.65,119.507,44.922
0.629,-0.064,-0.235,-63.721,103.027,44.128
0.56,-0.044,-0.156,-77.759,82.52,45.837
0.477,-0.031,-0.12,-89.661,59.692,48.584
0.395,-0.03,-0.131,-99.182,37.842,48.95
0.358,-0.001,-0.15,-102.661,22.339,44.434
0.344,0.066,-0.147,-102.6,12.756,38.208
0.305,0.157,-0.121,-99.365,6.47,34.363
0.265,0.246,-0.087,-91.492,1.343,32.288
0.228,0.308,-0.072,-78.918,-3.235,30.884
0.207,0.335,-0.063,-61.707,-6.409,29.358
0.221,0.345,-0.044,-40.588,-8.057,26.978
0.255,0.33,-0.04,-17.517,-9.705,23.315
0.286,0.298,-0.069,4.15,-10.742,19.592
0.326,0.241,-0.12,21.362,-8.301,16.724
0.36,0.169,-0.161,32.471,-1.343,14.648
0.392,0.108,-0.177,38.513,9.644,12.39
0.421,0.072,-0.19,40.1,21.423,8.728
0.463,0.051,-0.195,37.292,33.325,5.005
0.51,0.044,-0.189,30.579,44.983,1.953
0.553,0.053,-0.154,22.034,55.237,0.244
0.574,0.094,-0.097,13.428,62.683,1.526
0.569,0.146,-0.053,6.042,66.467,7.141
0.548,0.183,-0.025,0.549,67.2,16.968
0.497,0.245,0.007,-2.625,68.176,30.334
0.456,0.305,-0.017,-1.953,70.496,46.631
0.476,0.324,-0.103,2.258,74.219,61.829
0.543,0.317,-0.201,6.47,83.13,72.083
0.633,0.292,-0.265,8.85,96.313,75.317
0.74,0.265,-0.305,7.629,109.558,71.594
0.87,0.252,-0.314,4.333,119.202,63.477
1.018,0.257,-0.305,-1.465,121.155,54.077
1.134,0.283,-0.29,-9.521,114.624,47.485
1.194,0.342,-0.266,-18.005,101.44,45.532
1.219,0.426,-0.211,-25.085,82.642,48.218
1.198,0.505,-0.143,-30.945,56.702,55.664
1.102,0.533,-0.139,-36.133,25.696,66.284
0.974,0.495,-0.246,-39.185,-2.38,73.669
0.901,0.464,-0.328,-40.71,-16.846,72.51
0.864,0.478,-0.352,-42.908,-18.127,63.843
0.837,0.495,-0.393,-44.189,-12.695,48.767
0.94,0.571,-0.284,-41.87,-2.075,30.579
1.022,0.632,-0.131,-36.926,1.953,16.846
0.97,0.608,-0.16,-29.541,-8.545,7.263
0.89,0.541,-0.274,-17.212,-17.639,-2.136
0.891,0.537,-0.273,-4.028,-13.489,-11.719
0.899,0.55,-0.216,7.202,-5.249,-17.151
0.978,0.564,-0.068,16.296,-1.343,-16.846
0.969,0.491,-0.006,23.865,-8.85,-10.925
0.876,0.376,-0.189,29.114,-23.743,-7.019
0.85,0.344,-0.27,34.18,-23.193,-8.484
0.893,0.383,-0.201,35.278,-10.315,-10.132
0.938,0.381,-0.074,31.372,-0.671,-7.08
0.951,0.316,-0.011,26.794,-1.831,-3.113
0.922,0.255,-0.067,23.437,-9.46,-2.686
0.907,0.254,-0.116,18.066,-13.611,-4.944
0.904,0.278,-0.132,9.216,-10.559,-5.676
0.927,0.298,-0.106,-0.793,-5.188,-5.493
0.957,0.317,-0.06,-8.118,-1.648,-5.554
0.971,0.328,-0.045,-13.062,-2.991,-6.287
0.964,0.341,-0.063,-15.747,-7.324,-7.324
0.942,0.35,-0.088,-17.822,-10.681,-7.629
0.91,0.349,-0.111,-20.02,-11.23,-7.446
0.894,0.353,-0.107,-21.912,-8.728,-7.69
0.899,0.368,-0.086,-22.949,-5.798,-7.996
0.909,0.392,-0.064,-23.437,-4.272,-7.751
0.92,0.42,-0.055,-23.071,-4.7,-6.165
0.928,0.441,-0.056,-22.156,-6.836,-3.601
0.922,0.448,-0.074,-19.836,-9.888,-1.221
0.922,0.45,-0.091,-16.541,-11.78,-0.427
0.928,0.457,-0.096,-12.451,-12.268,-1.465
0.923,0.459,-0.1,-8.362,-12.39,-2.991
0.926,0.458,-0.105,-5.127,-12.268,-4.761
0.924,0.446,-0.107,-2.197,-11.536,-6.042
0.926,0.422,-0.104,-0.305,-10.681,-6.592
0.931,0.396,-0.085,0.488,-9.338,-7.507
0.943,0.386,-0.052,0.305,-9.277,-8.728
0.951,0.382,-0.03,-0.061,-12.085,-9.46
0.947,0.372,-0.036,-1.648,-17.395,-10.071
0.938,0.356,-0.044,-4.333,-21.667,-10.193
0.932,0.336,-0.04,-8.118,-25.33,-10.803
0.108,-0.493,2.671,45.471,57.19,40.405
0.088,-0.628,2.818,33.875,37.292,42.725
0.037,-0.721,2.648,13.977,14.343,39.185
0.021,-0.769,2.262,-5.798,9.705,35.767
-0.135,-0.71,2.024,-15.747,35.461,19.226
-0.257,-0.562,2.018,-15.198,89.722,-2.502
-0.216,-0.421,2.08,-9.033,153.564,-15.625
-0.072,-0.422,2.162,-4.944,208.008,-15.564
0.145,-0.45,2.335,-2.319,244.873,-9.033
0.309,-0.484,2.397,-0.671,255.493,-4.028
0.436,-0.532,2.306,0.244,245.972,0.488
0.433,-0.61,2.172,1.709,229.797,9.583
0.378,-0.651,2.013,0.0,212.524,21.179
0.283,-0.682,1.835,-5.188,195.496,37.17
0.168,-0.786,1.709,-17.212,183.838,55.603
0.061,-0.929,1.56,-40.466,176.147,68.848
-0.05,-0.983,1.378,-67.505,170.105,70.74
-0.169,-0.918,1.102,-85.815,166.565,61.096
-0.234,-0.826,0.87,-93.018,171.448,48.767
-0.207,-0.692,0.696,-89.844,183.228,41.26
-0.169,-0.604,0.544,-85.51,195.618,45.288
-0.092,-0.604,0.474,-82.275,207.581,55.176
-0.013,-0.646,0.362,-78.43,214.661,62.134
0.008,-0.667,0.253,-79.224,219.666,62.378
0.041,-0.626,0.179,-81.543,225.037,55.908
0.079,-0.558,0.126,-82.642,226.685,47.485
0.111,-0.471,0.039,-77.82,222.229,39.063
0.142,-0.338,-0.061,-64.758,215.454,30.762
0.204,-0.237,-0.145,-48.096,210.144,27.222
0.276,-0.23,-0.209,-34.729,205.2,31.799
0.362,-0.277,-0.237,-24.475,198.669,39.368
0.455,-0.352,-0.237,-17.761,188.965,45.837
0.512,-0.407,-0.238,-18.433,174.377,50.537
0.544,-0.44,-0.275,-27.222,156.921,57.007
0.552,-0.445,-0.284,-41.504,140.32,62.439
0.534,-0.393,-0.288,-57.373,123.352,63.721
0.47,-0.293,-0.321,-71.228,105.225,61.462
0.418,-0.183,-0.343,-81.482,90.088,57.068
0.412,-0.066,-0.313,-86.609,78.369,52.917
0.423,0.037,-0.255,-84.9,67.383,49.683
0.463,0.135,-0.184,-76.111,55.237,46.936
0.469,0.194,-0.128,-64.575,41.626,48.584
0.384,0.203,-0.188,-50.72,27.405,53.04
0.291,0.2,-0.264,-34.302,21.545,54.688
0.266,0.211,-0.264,-18.677,28.076,52.246
0.317,0.184,-0.206,-8.362,42.114,49.561
0.405,0.106,-0.085,-5.615,56.885,47.791
0.5,0.033,0.038,-7.141,63.965,42.297
0.562,0.024,0.08,-9.644,59.753,31.494
0.574,0.071,0.046,-13.611,50.72,20.752
0.574,0.129,-0.009,-17.273,44.617,14.343
0.578,0.178,-0.039,-18.616,43.213,11.902
0.597,0.219,-0.05,-16.357,44.739,10.62
0.653,0.245,-0.047,-11.475,47.729,9.033
0.71,0.254,-0.023,-6.104,51.819,7.935
0.76,0.252,-0.001,0.122,54.504,6.042
0.809,0.245,0.009,7.568,54.993,3.601
0.836,0.235,0.006,14.893,52.917,1.587
0.854,0.225,0.001,21.606,49.744,0.549
0.874,0.193,0.011,25.574,47.058,1.526
0.913,0.144,0.032,24.719,44.373,4.395
0.958,0.094,0.047,20.386,40.1,6.836
0.985,0.072,0.038,14.709,33.875,6.226
1.011,0.085,0.01,9.46,28.137,2.808
1.023,0.126,0.003,4.395,25.574,-0.854
1.022,0.159,0.01,0.427,26.001,-3.662
1.012,0.172,0.013,-1.831,27.222,-5.859
1.012,0.172,0.028,-2.197,29.48,-8.911
1.006,0.171,0.059,-2.319,31.799,-12.146
1.021,0.162,0.083,-1.343,33.081,-15.137
1.038,0.144,0.097,-0.244,34.729,-16.541
1.056,0.115,0.101,0.427,37.17,-15.625
1.103,0.103,0.157,1.343,38.757,-14.648
1.146,0.114,0.207,2.38,34.058,-13.062
1.088,0.097,0.128,2.869,22.766,-8.179
1.07,0.061,0.084,3.174,15.564,-2.563
1.1,0.014,0.145,3.479,13.367,2.38
1.084,-0.035,0.112,2.625,7.385,4.333
1.073,-0.024,0.069,0.244,3.845,4.883
1.079,-0.026,0.104,-4.272,6.287,7.08
1.079,-0.026,0.151,-8.179,7.446,8.911
1.047,-0.025,0.146,-10.742,3.906,9.094
1.024,0.011,0.146,-12.268,0.549,8.301
1.004,0.047,0.177,-13.428,-1.404,9.583
0.985,0.067,0.184,-14.099,-4.395,12.39
0.955,0.076,0.173,-14.526,-6.775,15.503
0.929,0.088,0.16,-13.794,-6.897,17.212
0.911,0.098,0.162,-12.451,-5.066,17.517
0.901,0.111,0.153,-10.315,-3.479,16.174
0.901,0.13,0.147,-7.385,-2.014,14.771
0.908,0.146,0.143,-4.578,-1.16,14.893
0.896,0.151,0.131,-1.709,-2.014,15.869
0.875,0.133,0.089,0.732,-3.601,17.151
0.839,0.115,0.036,2.014,-3.418,16.968
0.81,0.111,-0.006,2.38,0.793,13.794
0.835,0.147,0.002,1.587,9.399,9.827
0.914,0.176,0.092,-0.854,17.212,9.399
0.973,0.179,0.168,-3.54,15.503,11.169
0.968,0.167,0.123,-4.578,3.906,11.719
0.959,0.193,0.074,-4.089,-6.348,9.888
0.955,0.246,0.06,-4.028,-11.597,9.033
0.933,0.277,0.035,-5.005,-14.771,11.536
0.894,0.277,-0.013,-5.676,-15.808,14.282
0.838,0.246,-0.065,-4.395,-12.085,15.076
0.815,0.224,-0.066,-1.221,-3.357,11.108
0.84,0.248,-0.037,2.563,7.629,4.272
0.929,0.29,0.083,3.906,16.418,0.977
0.961,0.285,0.097,3.723,15.198,1.648
0.948,0.26,0.054,2.502,10.315,2.869
0.932,0.25,0.059,2.258,8.301,2.075
0.932,0.252,0.062,4.089,5.676,-1.587
0.927,0.264,0.045,6.958,1.587,-5.188
0.907,0.26,0.028,9.46,-1.526,-6.653
0.896,0.233,0.006,10.742,-2.625,-6.958
0.906,0.208,-0.011,10.742,-0.732,-7.08
0.95,0.189,0.02,9.155,4.395,-6.775
0.992,0.171,0.071,6.287,7.812,-6.226
1.007,0.163,0.096,2.991,6.042,-6.775
1.003,0.167,0.08,0.671,1.099,-7.446
0.127,-0.747,2.12,115.234,31.311,-2.136
0.019,-0.995,2.34,83.13,38.513,15.869
-0.043,-1.172,2.6,29.48,52.673,45.959
-0.012,-1.082,2.902,-21.179,63.965,76.355
-0.016,-0.932,3.231,-50.659,58.044,104.431
0.126,-0.835,3.374,-71.96,37.964,134.033
0.175,-0.718,3.182,-79.651,12.268,150.269
0.19,-0.631,3.008,-80.811,10.376,147.888
0.088,-0.646,3.028,-74.585,34.729,138.611
-0.146,-0.694,3.093,-65.186,65.247,117.31
-0.353,-0.693,3.011,-62.561,92.773,94.788
-0.51,-0.663,2.846,-70.374,122.925,81.299
-0.698,-0.741,2.593,-85.205,157.349,74.402
-0.783,-0.738,2.368,-100.037,197.083,60.303
-0.715,-0.608,2.172,-107.544,234.375,42.725
-0.732,-0.48,1.831,-104.37,261.169,27.649
-0.732,-0.415,1.528,-89.172,285.461,17.517
-0.673,-0.396,1.314,-68.604,307.983,12.085
-0.617,-0.351,1.068,-50.476,320.312,11.658
-0.555,-0.314,0.883,-34.729,323.181,17.456
-0.555,-0.299,0.64,-19.775,315.796,23.804
-0.565,-0.312,0.358,-8.362,305.176,29.663
-0.548,-0.379,0.168,0.732,299.133,34.18
-0.487,-0.452,0.024,8.301,292.847,33.752
-0.44,-0.466,-0.185,12.085,283.325,29.785
-0.373,-0.447,-0.32,9.827,278.259,30.151
-0.248,-0.434,-0.347,2.38,275.696,36.194
-0.102,-0.383,-0.363,-7.812,266.418,43.213
0.04,-0.361,-0.37,-20.02,247.803,52.612
0.092,-0.312,-0.465,-30.762,221.008,59.143
0.127,-0.215,-0.588,-38.025,196.472,62.256
0.192,-0.109,-0.576,-41.809,180.847,64.392
0.245,-0.054,-0.562,-43.579,163.513,66.833
0.249,-0.023,-0.557,-44.189,146.179,68.115
0.258,0.018,-0.501,-45.288,128.723,67.993
0.265,0.038,-0.455,-48.462,108.826,68.298
0.272,0.043,-0.418,-51.819,87.219,68.176
0.249,0.028,-0.464,-52.185,66.04,65.674
0.235,0.051,-0.548,-49.5,51.147,59.387
0.243,0.08,-0.657,-45.41,50.354,54.443
0.259,0.118,-0.682,-42.725,62.012,52.307
0.295,0.116,-0.673,-39.246,79.041,52.307
0.402,0.101,-0.552,-36.56,95.398,51.758
0.5,0.102,-0.396,-36.438,101.013,49.683
0.579,0.115,-0.308,-37.231,91.37,44.556
0.611,0.135,-0.292,-39.917,73.364,39.185
0.621,0.16,-0.291,-43.823,56.641,34.729
0.648,0.185,-0.29,-47.852,45.593,31.128
0.679,0.224,-0.237,-51.758,40.344,28.809
0.712,0.278,-0.18,-54.26,35.583,27.283
0.727,0.324,-0.15,-55.176,28.931,25.818
0.738,0.38,-0.104,-53.284,22.156,25.024
0.767,0.416,-0.032,-48.706,14.343,25.146
0.763,0.424,-0.014,-42.603,3.479,25.146
0.737,0.429,-0.045,-36.194,-6.104,24.658
0.731,0.375,-0.074,-28.992,-9.644,21.729
0.783,0.357,-0.047,-20.63,-7.141,13.184
0.829,0.344,-0.056,-13.489,-3.357,5.005
0.859,0.336,-0.049,-9.949,3.357,0.488
0.902,0.298,-0.021,-8.24,11.169,-1.038
0.948,0.276,0.034,-7.568,16.602,-2.502
0.992,0.266,0.087,-8.24,16.541,-4.395
1.035,0.266,0.131,-10.376,11.353,-6.653
1.067,0.292,0.145,-12.939,2.686,-9.094
1.073,0.36,0.105,-17.151,-5.798,-8.24
0.99,0.245,0.089,-20.996,-10.071,-2.197
1.044,0.344,0.163,-19.165,-11.78,-4.7
0.97,0.316,0.091,-16.357,-14.221,-4.211
0.923,0.286,0.092,-14.221,-8.24,-5.493
0.923,0.286,0.101,-10.498,0.977,-7.202
0.956,0.291,0.176,-7.446,11.169,-9.277
0.943,0.293,0.131,-5.249,16.541,-9.033
0.869,0.218,0.042,-4.028,24.353,-7.751
0.922,0.196,0.083,-1.282,39.795,-12.085
0.995,0.185,0.187,0.916,51.941,-18.066
1.057,0.208,0.263,1.587,52.063,-22.461
1.122,0.212,0.32,0.61,42.236,-21.362
1.125,0.193,0.3,-2.319,24.658,-17.7
1.103,0.186,0.242,-4.944,6.409,-14.221
1.039,0.168,0.164,-6.775,-7.324,-12.695
0.983,0.174,0.109,-7.08,-13.611,-13.306
0.983,0.203,0.139,-6.775,-12.634,-14.343
0.939,0.192,0.115,-5.859,-10.925,-13.611
0.962,0.226,0.159,-4.272,-7.935,-12.512
1.048,0.223,0.342,-1.648,-7.507,-8.85
1.065,0.19,0.369,1.831,-24.17,-6.531
0.993,0.169,0.231,5.493,-46.997,-5.981
0.864,0.154,0.032,7.385,-56.824,-6.592
0.815,0.16,-0.017,6.958,-44.8,-6.165
0.847,0.129,0.079,4.944,-21.912,-3.845
0.901,0.097,0.196,4.211,-5.981,-3.967
0.923,0.107,0.228,4.15,-3.052,-7.019
0.911,0.129,0.206,2.625,-5.188,-9.155
0.911,0.137,0.191,-0.061,-5.92,-8.667
0.896,0.118,0.161,-2.075,-5.31,-7.202
0.893,0.089,0.153,-2.197,-3.052,-8.057
0.898,0.14,0.134,-1.526,0.488,-11.353
0.904,0.149,0.142,-2.014,6.042,-10.681
0.952,0.114,0.22,-1.831,11.292,-9.216
0.981,0.125,0.245,-0.122,8.911,-9.827
0.979,0.135,0.232,0.366,2.197,-8.85
0.953,0.122,0.19,0.122,-3.54,-6.836
0.94,0.113,0.151,0.183,-5.615,-5.737
0.927,0.118,0.135,-0.183,-3.723,-5.31
0.923,0.123,0.132,-0.244,0.183,-4.883
0.938,0.117,0.151,-0.305,4.7,-4.211
0.973,0.126,0.206,-0.183,7.385,-4.211
1.006,0.141,0.244,-0.061,4.456,-3.296
1.011,0.137,0.237,-0.549,-3.052,-1.16
0.987,0.136,0.184,-0.671,-10.254,0.977
0.948,0.114,0.14,-0.549,-13.0,2.747
0.928,0.103,0.119,-0.671,-9.583,2.136
0.926,0.11,0.126,-1.404,-2.686,0.183
0.932,0.124,0.161,-3.235,5.127,-1.343
0.953,0.136,0.202,-5.188,10.132,-2.869
0.98,0.153,0.248,-6.653,10.986,-3.723
1.001,0.172,0.28,-7.935,6.714,-4.028
1.001,0.192,0.262,-8.179,-1.16,-2.869
0.982,0.213,0.219,-8.179,-7.751,-0.183
0.022,-0.331,2.818,107.727,98.572,-7.202
0.11,-0.393,2.923,80.75,134.46,-2.991
0.31,-0.358,2.968,49.683,169.556,-0.244
0.541,-0.248,2.948,23.682,196.167,13.794
0.604,-0.147,2.921,2.686,208.435,36.743
0.537,-0.133,2.85,-10.376,208.862,63.416
0.464,-0.135,2.794,-21.851,211.365,81.909
0.369,-0.06,2.682,-36.072,229.858,74.829
0.322,-0.007,2.541,-42.847,256.714,54.749
0.328,0.099,2.385,-39.612,287.659,38.025
0.328,0.159,2.185,-33.447,315.674,30.029
0.322,0.164,1.971,-27.71,337.952,29.48
0.282,0.073,1.823,-18.799,356.506,34.363
0.177,-0.062,1.714,-12.634,367.798,35.767
0.119,-0.242,1.532,-15.198,364.624,37.109
0.131,-0.402,1.23,-26.978,343.506,30.823
0.049,-0.387,1.025,-31.067,319.458,8.362
0.036,-0.322,0.904,-19.531,305.237,-7.202
0.083,-0.232,0.734,-14.771,290.833,-8.423
0.042,-0.303,0.43,-10.132,271.545,0.793
-0.039,-0.406,0.166,-3.662,261.047,9.094
-0.035,-0.413,0.048,7.69,266.968,6.836
0.023,-0.345,-0.103,22.095,273.987,2.625
0.09,-0.271,-0.179,33.752,280.518,2.319
0.181,-0.238,-0.163,45.898,286.133,6.348
0.223,-0.202,-0.185,57.007,282.043,10.315
0.31,-0.172,-0.224,63.293,270.386,15.991
0.434,-0.211,-0.171,62.317,251.16,25.269
0.424,-0.277,-0.233,54.993,218.567,31.067
0.319,-0.251,-0.498,43.579,182.922,31.982
0.361,-0.219,-0.502,31.982,166.443,34.485
0.453,-0.268,-0.373,22.583,152.893,35.4
0.374,-0.268,-0.449,14.832,125.916,29.785
0.254,-0.253,-0.612,9.033,103.943,25.513
0.18,-0.149,-0.663,5.127,101.868,18.616
0.272,-0.066,-0.539,2.563,108.643,16.785
0.353,-0.077,-0.407,-1.343,106.75,20.02
0.376,-0.145,-0.279,-1.892,91.309,18.677
0.287,-0.149,-0.37,2.869,65.002,11.536
0.187,-0.087,-0.528,9.094,47.852,4.089
0.225,-0.021,-0.455,17.639,51.697,0.854
0.324,-0.005,-0.29,26.428,55.237,4.333
0.384,-0.033,-0.197,33.081,46.509,11.475
0.406,-0.082,-0.181,37.659,29.602,18.433
0.415,-0.135,-0.209,39.001,13.0,23.437
0.41,-0.16,-0.226,36.926,1.404,26.306
0.421,-0.168,-0.219,31.25,-4.211,28.076
0.453,-0.183,-0.197,20.508,-5.493,30.212
0.453,-0.178,-0.199,5.371,-4.883,32.288
0.445,-0.16,-0.211,-10.803,-2.38,32.349
0.436,-0.12,-0.237,-24.536,3.296,29.175
0.49,-0.056,-0.185,-33.447,11.719,23.56
0.57,0.021,-0.096,-35.034,16.907,17.578
0.619,0.11,-0.081,-33.63,14.038,15.564
0.657,0.162,-0.072,-31.372,9.521,20.569
0.665,0.181,-0.078,-28.503,5.859,27.649
0.678,0.178,-0.08,-24.414,3.479,34.485
0.714,0.161,-0.079,-19.226,2.075,39.429
0.743,0.155,-0.092,-14.893,0.916,41.138
0.767,0.154,-0.112,-12.451,1.526,41.138
0.796,0.159,-0.12,-12.268,3.479,39.917
0.822,0.161,-0.132,-13.428,5.981,37.903
0.827,0.116,-0.166,-16.296,9.216,36.194
0.862,0.041,-0.133,-19.958,14.648,29.358
0.937,0.085,-0.083,-23.01,17.212,16.846
0.951,0.164,-0.115,-29.358,14.771,9.155
0.989,0.23,-0.121,-35.889,14.954,5.798
0.967,0.252,-0.153,-41.321,17.151,8.24
0.963,0.276,-0.192,-44.678,22.705,12.573
0.957,0.308,-0.212,-46.448,32.349,18.555
0.954,0.318,-0.208,-46.631,44.8,24.353
0.988,0.274,-0.149,-46.143,56.702,28.625
1.084,0.308,-0.012,-44.128,62.439,27.283
1.137,0.21,0.037,-40.344,54.871,25.513
1.151,0.135,0.067,-35.278,39.856,13.55
1.196,0.285,0.079,-26.306,17.822,-2.075
1.145,0.405,-0.071,-23.682,-6.287,-2.258
1.028,0.384,-0.193,-22.339,-17.029,4.639
1.011,0.294,-0.22,-17.517,-14.465,11.292
0.992,0.231,-0.229,-9.216,-7.874,12.207
1.006,0.188,-0.2,0.488,-1.282,5.737
1.028,0.192,-0.155,9.827,3.296,-3.601
1.044,0.211,-0.124,15.93,3.235,-9.216
1.046,0.209,-0.106,18.25,0.732,-8.911
1.026,0.175,-0.117,17.456,-2.991,-4.883
1.0,0.127,-0.119,16.113,-5.066,-1.282
0.983,0.106,-0.118,15.381,-6.775,-0.793
0.968,0.114,-0.137,13.611,-7.751,-1.465
0.942,0.122,-0.17,10.437,-6.836,-1.038
0.915,0.104,-0.198,7.996,-2.808,0.427
0.92,0.072,-0.188,6.165,3.967,-0.488
0.955,0.077,-0.156,5.066,9.338,-4.639
0.979,0.099,-0.152,3.235,10.376,-8.606
0.994,0.12,-0.132,0.732,9.033,-11.536
1.007,0.148,-0.111,-1.282,5.005,-12.451
0.998,0.175,-0.134,-2.991,-1.038,-10.742
0.962,0.202,-0.204,-3.235,-5.798,-7.751
0.926,0.207,-0.26,-1.77,-4.456,-3.784
0.926,0.198,-0.271,1.404,2.625,-0.427
0.932,0.174,-0.258,5.066,11.292,1.77
0.941,0.155,-0.24,8.301,17.944,2.136
0.955,0.144,-0.226,10.193,22.095,1.709
0.974,0.138,-0.202,9.583,24.17,1.16
0.982,0.129,-0.173,7.202,23.682,1.953
0.974,0.116,-0.157,5.615,20.02,1.953
0.969,0.113,-0.158,4.272,14.709,1.221
0.96,0.133,-0.168,2.991,9.705,0.671
0.942,0.166,-0.186,1.343,5.676,1.648
0.927,0.182,-0.207,-0.305,3.845,5.066
0.917,0.171,-0.21,-0.916,4.272,8.911
0.926,0.141,-0.203,-0.305,4.517,10.559
0.943,0.132,-0.182,1.648,3.479,7.996
0.958,0.16,-0.164,3.784,0.305,4.578
0.991,0.182,-0.13,4.761,-4.944,3.723
0.973,0.182,-0.16,4.639,-12.817,5.127
0.946,0.168,-0.209,4.15,-18.127,8.118
0.934,0.143,-0.213,4.944,-18.066,9.155
0.914,0.136,-0.223,5.92,-15.808,7.446
0.91,0.136,-0.232,5.005,-12.451,5.615
0.118,-0.596,2.059,38.025,30.762,10.559
0.123,-0.665,2.177,32.776,31.86,15.381
0.123,-0.739,2.274,21.301,37.781,23.01
0.122,-0.817,2.332,5.005,45.837,35.034
0.105,-0.938,2.322,-13.794,56.641,45.776
0.072,-1.048,2.371,-35.034,74.463,49.805
0.037,-1.162,2.515,-58.105,97.168,51.697
0.002,-1.133,2.715,-80.505,121.826,48.523
0.091,-0.875,2.855,-97.778,142.944,45.349
0.141,-0.742,2.974,-111.755,160.889,57.617
0.091,-0.742,3.044,-118.835,178.04,71.228
-0.006,-0.7,2.966,-117.432,190.002,75.623
-0.138,-0.613,2.73,-111.694,201.111,73.547
-0.305,-0.513,2.46,-103.149,223.45,65.552
-0.254,-0.351,2.294,-92.529,255.249,58.594
-0.311,-0.371,2.024,-84.351,282.715,59.937
-0.353,-0.374,1.722,-73.853,307.251,52.49
-0.341,-0.339,1.45,-60.181,330.505,40.039
-0.341,-0.321,1.166,-46.997,348.511,28.32
-0.354,-0.28,0.866,-35.278,362.488,19.043
-0.296,-0.229,0.664,-23.56,374.695,14.526
-0.26,-0.208,0.452,-8.789,379.395,10.925
-0.237,-0.209,0.237,8.423,377.808,5.859
-0.2,-0.197,0.064,25.757,374.878,0.793
-0.17,-0.2,-0.09,40.527,369.995,-1.648
-0.149,-0.211,-0.221,52.979,362.793,-3.418
-0.111,-0.168,-0.326,61.89,355.713,-4.456
-0.051,-0.104,-0.418,67.505,347.9,-0.488
0.003,-0.032,-0.473,68.848,339.172,10.681
0.084,-0.01,-0.468,65.796,328.308,29.236
0.14,-0.046,-0.451,60.547,312.012,47.913
0.169,-0.086,-0.48,56.335,288.33,60.242
0.197,-0.12,-0.573,52.979,263.428,69.031
0.227,-0.166,-0.633,48.462,245.117,73.792
0.294,-0.173,-0.701,44.373,231.201,73.181
0.331,-0.157,-0.77,44.617,219.849,70.068
0.384,-0.09,-0.753,39.795,215.576,71.777
0.466,-0.03,-0.621,31.555,210.388,78.857
0.541,0.002,-0.471,22.217,192.505,88.196
0.471,-0.016,-0.502,13.0,160.4,95.886
0.483,-0.031,-0.473,2.93,129.883,98.267
0.505,-0.018,-0.428,-4.456,100.891,94.36
0.473,0.032,-0.456,-11.169,69.092,88.013
0.465,0.096,-0.453,-16.724,42.603,81.726
0.452,0.128,-0.488,-20.203,20.386,75.623
0.448,0.143,-0.51,-22.461,3.662,70.618
0.414,0.165,-0.499,-23.132,-5.432,65.979
0.405,0.175,-0.425,-23.315,-10.681,61.035
0.352,0.165,-0.405,-23.56,-19.653,54.016
0.379,0.138,-0.338,-23.926,-29.724,46.875
0.412,0.119,-0.242,-24.109,-40.283,39.49
0.388,0.119,-0.258,-26.001,-55.908,32.898
0.382,0.129,-0.314,-29.419,-66.467,26.794
0.409,0.158,-0.327,-33.02,-67.932,21.606
0.448,0.196,-0.316,-35.706,-65.186,19.104
0.487,0.226,-0.322,-36.011,-63.416,18.372
0.517,0.256,-0.318,-33.63,-61.89,17.944
0.545,0.283,-0.307,-28.503,-60.73,18.005
0.593,0.29,-0.305,-22.4,-60.364,19.165
0.607,0.287,-0.314,-18.005,-58.655,21.057
0.605,0.256,-0.333,-14.709,-55.176,22.461
0.655,0.196,-0.297,-11.353,-48.706,20.752
0.744,0.247,-0.253,-7.874,-43.518,14.648
0.769,0.264,-0.255,-7.507,-41.687,13.0
0.811,0.281,-0.223,-7.202,-39.124,13.367
0.835,0.28,-0.199,-7.324,-38.513,16.174
0.85,0.273,-0.197,-7.812,-38.391,17.883
0.87,0.278,-0.186,-9.338,-36.072,19.226
0.899,0.271,-0.163,-13.367,-32.654,19.592
0.844,0.192,-0.222,-17.639,-29.358,17.273
0.905,0.179,-0.162,-19.836,-21.912,6.165
0.951,0.277,-0.115,-20.813,-15.625,-5.737
0.971,0.325,-0.072,-23.926,-12.817,-8.911
0.994,0.317,-0.028,-25.452,-11.963,-8.057
1.017,0.31,0.009,-25.024,-12.878,-6.226
0.965,0.292,-0.04,-23.56,-15.198,-4.272
0.934,0.284,-0.093,-21.24,-11.23,-4.333
1.032,0.292,0.042,-18.127,-0.183,-4.883
1.094,0.263,0.152,-15.259,2.502,-4.883
1.058,0.238,0.097,-11.108,-7.568,-6.958
1.003,0.25,-0.009,-5.798,-15.564,-10.498
0.991,0.275,-0.067,-2.441,-12.329,-10.986
1.048,0.27,0.023,-0.977,-2.441,-7.568
1.137,0.245,0.19,1.465,-0.916,-4.883
1.118,0.283,0.13,4.944,-16.602,-3.235
1.009,0.222,-0.03,7.324,-31.189,1.831
0.896,0.033,-0.136,9.888,-28.992,0.977
0.96,0.126,-0.129,12.39,-13.733,-11.902
0.973,0.227,-0.044,9.521,2.93,-16.296
1.014,0.221,0.068,3.845,13.245,-13.367
1.053,0.151,0.149,3.113,11.292,-8.972
0.996,0.132,0.061,4.089,-1.648,-9.277
0.992,0.187,-0.003,5.92,-8.667,-10.376
1.019,0.167,0.028,6.287,-9.155,-7.507
1.03,0.138,0.006,7.202,-12.146,-5.249
1.025,0.131,-0.046,7.446,-16.541,-3.906
0.997,0.117,-0.079,7.263,-15.93,-3.296
0.967,0.112,-0.102,7.446,-11.78,-3.479
0.958,0.105,-0.089,7.019,-5.127,-3.967
0.969,0.101,-0.046,5.92,1.587,-4.395
0.972,0.105,-0.025,5.127,4.761,-5.371
0.969,0.109,-0.025,4.028,5.127,-5.615
0.966,0.112,-0.033,2.502,5.066,-5.188
0.967,0.118,-0.038,0.549,5.432,-4.517
0.98,0.13,-0.035,-1.221,5.676,-3.906
0.996,0.141,-0.021,-2.441,4.944,-2.869
1.005,0.146,-0.009,-3.418,2.136,-1.465
1.005,0.153,-0.017,-3.784,-1.709,-0.488
0.992,0.157,-0.034,-3.479,-4.639,0.732
0.973,0.158,-0.05,-3.113,-6.226,2.014
0.958,0.159,-0.059,-2.502,-6.042,2.747
0.949,0.164,-0.06,-2.258,-4.639,3.418
0.952,0.17,-0.053,-2.258,-2.625,3.662
0.962,0.175,-0.042,-2.747,-0.732,3.601
0.971,0.174,-0.036,-2.808,-0.183,3.418
0.972,0.172,-0.043,-2.93,-0.61,2.686
0.973,0.168,-0.047,-2.869,-0.732,1.831
0.974,0.171,-0.036,-3.113,-0.549,1.038
0.979,0.178,-0.031,-3.662,-1.343,0.732
0.226,-0.753,2.404,49.622,55.359,36.133
0.23,-0.935,2.73,38.025,48.462,51.208
0.143,-1.148,2.962,27.161,30.518,65.125
0.01,-1.196,2.951,5.615,14.648,76.416
-0.13,-1.068,2.814,-14.526,15.259,84.961
-0.197,-0.832,2.695,-26.611,38.452,86.304
-0.144,-0.625,2.66,-25.879,77.454,87.219
-0.136,-0.569,2.678,-18.86,117.371,88.44
-0.061,-0.608,2.651,-11.475,148.743,89.05
-0.045,-0.71,2.619,-9.277,172.729,92.957
-0.1,-0.853,2.577,-14.893,193.604,98.572
-0.217,-1.056,2.498,-28.564,208.13,94.788
-0.272,-0.792,2.21,-44.373,213.684,73.73
-0.407,-0.515,1.763,-60.913,219.238,67.749
-0.475,-0.373,1.416,-72.693,239.685,71.777
-0.453,-0.417,1.131,-71.96,265.808,76.782
-0.386,-0.444,0.907,-63.293,288.818,65.552
-0.149,-0.227,0.827,-48.523,305.115,46.509
-0.069,-0.06,0.685,-38.574,303.955,45.532
-0.035,-0.099,0.564,-31.494,292.786,56.58
0.01,-0.193,0.43,-20.996,273.865,65.247
0.027,-0.244,0.234,-10.193,250.732,66.895
0.042,-0.284,0.079,-4.15,233.215,66.895
0.076,-0.344,-0.006,-4.883,222.29,65.552
0.111,-0.428,-0.112,-11.536,213.135,62.073
0.142,-0.414,-0.229,-23.132,208.252,56.213
0.215,-0.312,-0.24,-36.133,209.717,53.101
0.314,-0.245,-0.201,-49.316,209.656,55.664
0.378,-0.189,-0.203,-60.486,200.867,58.411
0.415,-0.11,-0.24,-66.711,188.354,61.096
0.489,-0.03,-0.193,-69.702,176.758,65.125
0.557,-0.011,-0.104,-69.336,160.767,68.848
0.617,-0.025,-0.074,-65.247,134.766,69.702
0.568,-0.046,-0.187,-59.509,105.164,67.749
0.492,-0.031,-0.293,-54.81,85.51,64.148
0.462,0.016,-0.268,-49.744,80.139,59.875
0.49,0.006,-0.184,-46.265,78.003,56.763
0.529,-0.011,-0.121,-43.274,70.557,53.345
0.521,0.022,-0.108,-40.039,58.228,48.889
0.463,0.034,-0.184,-38.696,45.532,45.837
0.438,0.023,-0.214,-39.978,42.786,45.349
0.454,0.002,-0.173,-40.833,46.997,44.556
0.503,-0.013,-0.089,-39.978,49.744,40.344
0.507,0.022,-0.07,-37.903,46.997,34.058
0.484,0.075,-0.095,-35.278,43.701,28.931
0.472,0.112,-0.092,-32.471,43.701,26.917
0.479,0.086,-0.071,-30.029,45.837,27.283
0.531,0.063,-0.046,-27.649,46.875,25.513
0.589,0.08,-0.023,-26.245,45.898,22.766
