aX,aY,aZ,gX,gY,gZ
-1.454,-0.356,0.897,-36.987,-344.177,28.198
-1.562,-0.46,0.79,-29.663,-393.86,51.88
-1.635,-0.534,0.675,-28.87,-434.814,73.486
-1.678,-0.593,0.618,-28.32,-463.745,94.421
-1.656,-0.632,0.565,-27.588,-476.44,113.22
-1.623,-0.648,0.476,-30.884,-472.595,125.854
-1.57,-0.58,0.24,-37.537,-452.332,139.954
-1.67,-0.683,0.018,-44.556,-415.649,171.082
-1.805,-0.882,-0.09,-78.613,-359.863,210.999
-1.818,-1.086,-0.158,-120.483,-301.331,231.567
-1.698,-1.151,-0.266,-132.874,-257.019,234.192
-1.556,-1.02,-0.419,-126.831,-224.365,226.501
-1.467,-0.729,-0.62,-124.695,-194.214,219.849
-1.404,-0.498,-0.684,-128.784,-159.363,222.595
-1.305,-0.391,-0.701,-136.536,-114.685,235.779
-1.141,-0.451,-0.61,-142.944,-68.298,249.39
-0.983,-0.636,-0.499,-145.874,-32.959,255.615
-0.9,-0.81,-0.433,-148.926,-11.414,247.925
-0.846,-0.896,-0.39,-158.569,3.601,230.835
-0.784,-0.868,-0.34,-174.438,18.86,212.708
-0.718,-0.73,-0.271,-189.453,33.02,198.669
-0.671,-0.525,-0.187,-197.876,43.579,193.726
-0.657,-0.335,-0.106,-200.439,52.856,200.378
-0.644,-0.219,-0.034,-201.599,63.904,216.736
-0.621,-0.149,-0.007,-203.125,77.759,235.046
-0.583,-0.103,-0.019,-201.172,92.834,246.033
-0.573,-0.117,-0.069,-198.486,108.826,248.84
-0.554,-0.153,-0.113,-192.932,132.874,255.737
-0.492,-0.136,-0.145,-185.608,163.391,270.691
-0.411,-0.046,-0.167,-177.246,195.923,277.832
-0.349,0.11,-0.146,-164.856,229.858,280.884
-0.312,0.254,-0.04,-144.226,263.977,287.72
-0.228,0.386,0.128,-114.624,290.833,302.551
-0.102,0.501,0.328,-85.083,302.307,322.388
0.015,0.559,0.522,-56.946,295.288,339.478
0.111,0.56,0.703,-34.058,268.188,358.887
0.151,0.512,0.789,-17.822,223.389,380.31
0.132,0.425,0.713,-8.484,172.241,398.804
-0.006,0.342,0.551,5.676,131.348,411.133
-0.15,0.283,0.353,25.391,111.572,416.992
-0.233,0.248,0.174,38.513,109.314,416.931
-0.28,0.24,0.037,47.913,121.033,411.621
-0.325,0.259,-0.048,56.824,144.043,402.71
-0.334,0.307,-0.105,60.73,175.659,393.921
-0.292,0.364,-0.115,57.739,212.891,388.611
-0.217,0.401,-0.052,48.95,249.939,384.46
-0.135,0.388,0.047,41.992,278.625,373.596
-0.087,0.316,0.136,41.321,289.062,351.624
-0.12,0.217,0.204,37.964,282.104,322.205
-0.154,0.137,0.203,28.259,265.503,289.978
-0.158,0.145,0.12,20.935,248.108,255.92
-0.139,0.24,-0.005,23.926,237.305,225.952
-0.054,0.355,-0.134,34.241,232.849,206.482
0.107,0.455,-0.274,51.453,232.422,197.693
0.256,0.487,-0.392,77.332,232.117,197.632
0.418,0.449,-0.513,97.9,232.605,204.224
0.577,0.351,-0.621,100.098,236.816,216.553
0.707,0.215,-0.722,90.393,242.31,227.173
0.786,0.044,-0.848,78.186,246.033,227.722
0.961,-0.067,-1.089,56.824,247.742,219.116
1.208,-0.048,-1.455,32.532,240.662,204.163
1.39,0.042,-1.858,22.156,218.323,180.847
1.616,0.15,-2.221,13.55,189.575,153.809
1.86,0.234,-2.544,6.531,165.894,127.197
1.692,0.168,-3.013,11.78,165.161,97.961
1.728,0.019,-3.035,11.658,225.83,61.523
2.133,-0.008,-2.411,-17.273,291.809,24.902
2.403,-0.037,-1.625,-34.302,299.072,-18.372
2.196,0.124,-1.331,-19.958,240.173,-50.232
2.004,0.105,-1.418,-9.094,158.325,-49.744
1.711,0.321,-1.479,-16.052,98.45,-44.495
1.537,0.211,-1.538,-10.132,66.895,-21.851
1.393,-0.043,-1.306,-14.771,52.368,-7.935
1.273,-0.287,-1.194,-6.104,34.119,-20.508
1.187,-0.219,-1.148,9.521,15.503,-37.781
1.14,0.066,-1.068,10.742,9.277,-47.058
1.127,0.19,-0.973,-3.113,10.071,-39.612
1.071,0.059,-0.809,-26.55,11.353,-27.344
1.025,-0.241,-0.666,-39.429,3.967,-22.339
0.955,-0.397,-0.595,-36.377,-12.451,-34.485
0.913,-0.366,-0.612,-25.085,-32.471,-52.856
0.751,-0.235,-0.693,-23.682,-45.41,-66.772
0.748,-0.157,-0.637,-29.846,-46.753,-71.96
0.788,-0.222,-0.669,-37.231,-39.307,-65.125
0.631,-0.13,-0.59,-45.288,-26.855,-61.462
0.725,-0.136,-0.612,-41.443,-15.076,-49.927
0.636,-0.08,-0.611,-42.725,-3.784,-38.696
0.577,-0.096,-0.58,-38.818,11.78,-34.302
0.625,-0.073,-0.574,-29.297,23.315,-23.621
0.645,-0.032,-0.561,-23.926,30.701,-14.099
0.644,-0.043,-0.512,-19.104,34.424,-5.981
0.659,-0.02,-0.45,-10.864,31.677,-1.038
0.728,0.012,-0.48,0.977,20.142,3.662
0.675,0.053,-0.55,10.01,5.737,8.179
0.634,-0.003,-0.608,12.634,-3.418,12.146
0.613,-0.076,-0.641,10.193,-7.019,13.184
0.594,-0.119,-0.67,5.493,-7.568,9.705
0.574,-0.125,-0.677,-1.709,-5.432,4.15
0.577,-0.115,-0.651,-9.216,-3.967,-4.211
0.594,-0.103,-0.651,-14.526,-5.249,-13.306
0.595,-0.069,-0.652,-18.433,-8.606,-20.081
0.595,-0.036,-0.645,-18.555,-12.268,-24.475
0.616,-0.012,-0.635,-15.381,-16.541,-24.963
0.633,-0.007,-0.631,-11.719,-22.278,-22.095
0.597,0.03,-0.642,-6.47,-28.076,-16.846
0.619,0.042,-0.676,-0.366,-31.25,-6.653
0.587,-0.057,-0.677,2.014,-29.419,3.967
0.558,-0.215,-0.632,3.784,-26.062,4.822
0.591,-0.321,-0.646,6.897,-26.489,-2.258
0.594,-0.252,-0.718,8.423,-26.55,-13.916
0.546,-0.16,-0.771,5.066,-18.127,-17.944
0.523,-0.135,-0.813,-4.578,-3.967,-17.7
0.569,-0.152,-0.856,-10.986,13.428,-16.174
0.569,-0.17,-0.814,-13.977,33.569,-11.963
0.587,-0.169,-0.735,-16.479,50.171,-11.23
0.662,-0.145,-0.642,-14.282,57.739,-11.414
0.707,-0.152,-0.551,-9.644,53.833,-8.85
0.718,-0.159,-0.51,-4.944,38.635,-7.08
0.741,-0.144,-0.526,0.061,16.418,-4.333
-1.477,-0.902,0.786,-38.818,-498.779,-83.008
-1.77,-1.004,0.702,-61.584,-549.927,-67.688
-2.017,-1.097,0.887,-77.881,-581.238,-42.48
-2.288,-1.092,0.867,-73.486,-594.421,-13.672
-2.416,-1.062,0.995,-52.856,-569.641,21.851
-2.321,-1.134,1.203,-30.212,-522.522,65.857
-2.001,-1.112,1.151,-49.255,-490.234,118.713
-1.741,-0.888,0.72,-91.675,-469.238,196.594
-1.997,-0.728,0.433,-125.61,-434.631,302.49
-1.981,-0.804,-0.035,-155.029,-404.114,395.386
-1.683,-0.931,-0.695,-157.837,-381.592,461.243
-1.651,-0.977,-1.221,-147.705,-325.806,499.268
-1.681,-1.075,-1.54,-133.667,-230.53,501.526
-1.561,-1.047,-1.405,-132.263,-120.056,481.873
-1.517,-0.915,-1.068,-141.785,-18.005,449.524
-1.472,-0.776,-0.683,-146.79,67.688,393.86
-1.218,-0.711,-0.203,-144.592,131.47,341.064
-0.934,-0.662,0.143,-137.268,162.781,304.81
-0.674,-0.567,0.341,-133.545,166.626,274.658
-0.456,-0.461,0.467,-142.761,151.489,259.644
-0.344,-0.324,0.538,-158.264,125.0,265.869
-0.302,-0.242,0.557,-167.847,94.482,281.86
-0.292,-0.17,0.495,-178.711,65.857,300.842
-0.408,-0.08,0.401,-193.604,45.654,311.401
-0.476,-0.097,0.318,-195.618,42.969,317.322
-0.462,-0.089,0.232,-177.246,56.702,331.726
-0.536,0.026,0.173,-157.715,81.482,337.708
-0.588,0.114,0.139,-146.362,111.511,341.614
-0.574,0.139,0.171,-134.583,145.752,349.243
-0.559,0.204,0.306,-119.141,182.312,346.313
-0.513,0.303,0.442,-101.196,209.351,338.257
-0.474,0.386,0.514,-85.083,223.633,334.106
-0.441,0.442,0.526,-73.914,222.656,332.214
-0.388,0.486,0.444,-67.871,213.074,331.116
-0.368,0.466,0.36,-59.204,204.529,330.139
-0.355,0.387,0.293,-44.006,198.303,327.942
-0.326,0.347,0.217,-29.846,192.749,322.571
-0.282,0.363,0.137,-15.503,193.665,318.42
-0.257,0.398,0.108,3.235,204.529,315.002
-0.219,0.423,0.103,27.405,220.947,312.378
-0.124,0.441,0.094,49.866,238.464,311.218
-0.052,0.446,0.129,67.322,254.944,313.965
-0.006,0.377,0.166,79.102,265.076,318.237
-0.009,0.364,0.21,86.365,267.151,318.665
-0.027,0.373,0.203,92.346,264.954,313.965
0.057,0.318,0.305,89.905,264.648,311.34
0.119,0.321,0.285,81.238,258.85,301.147
0.156,0.356,0.208,73.547,252.686,290.649
0.15,0.424,0.09,70.496,249.695,279.846
0.17,0.44,-0.056,66.284,251.282,269.043
0.198,0.42,-0.233,58.899,259.216,257.751
0.232,0.333,-0.427,50.781,272.339,244.08
0.297,0.229,-0.645,37.964,283.752,224.121
0.453,0.172,-0.891,16.968,290.771,200.439
0.62,0.16,-1.191,0.488,293.213,174.011
0.857,0.273,-1.535,-7.385,288.086,145.691
1.14,0.455,-1.959,-2.991,273.193,119.446
1.382,0.611,-2.312,20.386,253.235,96.741
1.601,0.563,-2.531,48.706,234.924,75.317
1.748,0.299,-2.61,58.594,227.966,55.42
1.781,-0.032,-2.504,46.631,241.699,38.33
1.831,-0.215,-2.177,21.912,261.047,13.245
1.92,-0.258,-1.78,-3.601,254.639,-21.24
1.893,-0.316,-1.568,-20.996,210.632,-54.565
1.709,-0.319,-1.588,-33.386,150.208,-83.74
1.588,0.016,-1.456,-39.49,103.455,-100.647
1.468,0.312,-1.394,-39.001,63.599,-87.585
1.486,0.208,-1.29,-34.912,25.818,-63.049
1.247,0.023,-1.137,-27.893,-3.418,-46.143
1.238,-0.182,-0.898,-9.277,-30.701,-31.128
1.181,-0.314,-1.036,6.592,-63.66,-30.518
0.905,-0.372,-1.149,14.709,-62.134,-45.349
0.765,-0.327,-1.048,7.507,-30.762,-51.514
0.869,-0.31,-0.894,-6.897,2.136,-53.04
0.923,-0.359,-0.766,-20.264,24.658,-55.664
0.861,-0.381,-0.663,-26.672,36.072,-64.575
0.844,-0.297,-0.576,-24.292,36.865,-72.388
0.896,-0.166,-0.538,-22.644,29.968,-71.899
0.912,-0.089,-0.51,-27.527,20.325,-60.791
0.875,-0.059,-0.478,-34.546,9.155,-44.861
0.836,-0.051,-0.454,-33.142,-4.7,-27.649
0.795,-0.149,-0.428,-23.499,-21.423,-14.221
0.774,-0.221,-0.516,-14.343,-38.879,-16.052
0.767,-0.103,-0.639,-4.517,-47.241,-20.264
0.695,-0.005,-0.678,-6.775,-44.067,-4.7
0.605,-0.168,-0.74,-20.752,-33.936,4.15
0.552,-0.321,-0.791,-17.212,-17.456,-6.592
0.604,-0.248,-0.772,-7.202,2.869,-15.198
0.667,-0.034,-0.617,-8.606,20.996,-20.691
0.76,0.001,-0.46,-14.709,23.926,-12.512
0.784,-0.121,-0.443,-18.616,8.85,-7.69
0.744,-0.183,-0.5,-10.986,-11.78,-9.827
0.716,-0.155,-0.577,-3.174,-28.259,-9.583
0.708,-0.066,-0.662,-2.869,-36.682,-11.23
0.706,0.045,-0.695,-3.479,-37.781,-7.141
0.699,-0.027,-0.679,-9.033,-36.072,7.874
0.679,-0.132,-0.661,-14.465,-35.339,11.841
0.667,-0.233,-0.654,-7.629,-34.607,10.681
0.644,-0.23,-0.671,-4.15,-32.349,5.127
0.615,-0.209,-0.676,-3.296,-26.367,-3.845
0.625,-0.141,-0.686,-1.709,-17.761,-9.705
0.658,-0.111,-0.694,-0.366,-7.08,-9.521
0.671,-0.11,-0.669,-2.686,2.747,-5.676
0.692,-0.161,-0.631,-4.028,8.789,-1.038
0.726,-0.202,-0.605,-1.831,8.972,-0.488
0.733,-0.18,-0.583,1.038,5.371,-1.465
0.738,-0.17,-0.603,-0.183,0.854,-1.587
0.733,-0.149,-0.609,-3.052,-2.686,-0.122
0.726,-0.246,-0.604,-7.385,-6.897,3.723
0.699,-0.266,-0.596,-8.301,-11.414,-4.211
0.743,-0.234,-0.599,-2.319,-16.541,-5.493
0.741,-0.159,-0.633,-4.761,-20.02,-6.348
0.696,-0.151,-0.672,-7.812,-18.433,-4.272
0.678,-0.177,-0.696,-9.216,-11.658,-0.427
0.688,-0.21,-0.717,-6.897,-3.357,1.282
0.689,-0.216,-0.725,-2.93,5.981,-0.61
0.698,-0.203,-0.703,-1.526,15.32,-1.892
0.729,-0.209,-0.674,-3.235,21.851,-2.441
0.746,-0.233,-0.653,-6.409,25.024,-3.784
-1.083,-1.118,0.798,-10.62,-68.726,27.1
-1.245,-1.228,0.841,-5.981,-98.816,37.109
-1.367,-1.348,0.866,-0.793,-129.456,49.622
-1.438,-1.411,0.881,-1.038,-159.302,63.477
-1.507,-1.445,0.896,0.977,-188.049,74.585
-1.567,-1.477,0.915,4.333,-214.661,83.557
-1.556,-1.495,0.911,-0.183,-238.037,90.21
-1.508,-1.473,0.875,-10.559,-258.545,93.628
-1.463,-1.403,0.808,-21.606,-275.818,95.337
-1.435,-1.344,0.74,-34.424,-289.124,101.379
-1.402,-1.3,0.668,-51.575,-296.265,118.286
-1.355,-1.283,0.566,-71.777,-294.983,144.897
-1.315,-1.281,0.439,-98.206,-283.325,176.697
-1.269,-1.233,0.281,-123.962,-258.606,211.975
-1.244,-1.113,0.083,-143.982,-217.896,245.911
-1.261,-0.979,-0.066,-160.522,-161.133,280.823
-1.24,-0.81,-0.147,-178.833,-92.957,317.81
-1.15,-0.642,-0.211,-188.477,-26.672,348.328
-1.042,-0.458,-0.271,-188.66,33.203,370.911
-0.933,-0.265,-0.302,-180.725,89.6,389.404
-0.82,-0.099,-0.287,-165.527,141.541,404.663
-0.677,0.057,-0.237,-146.667,186.646,415.771
-0.5,0.179,-0.162,-124.268,222.29,423.035
-0.325,0.268,-0.056,-92.651,247.131,431.213
-0.173,0.326,0.091,-54.626,260.254,440.552
-0.018,0.362,0.296,-16.907,258.24,449.768
0.151,0.383,0.558,18.005,236.206,456.665
0.335,0.378,0.821,48.096,187.195,461.426
0.49,0.354,0.968,68.97,110.962,466.675
0.476,0.296,0.842,81.238,20.447,470.337
0.31,0.204,0.582,86.609,-57.007,472.595
0.129,0.151,0.407,96.13,-102.6,471.375
-0.009,0.139,0.294,117.859,-126.526,458.313
-0.055,0.202,0.174,133.728,-131.714,434.448
-0.126,0.214,0.131,137.878,-112.061,414.062
-0.21,0.124,0.21,132.324,-71.533,394.592
-0.231,-0.042,0.337,118.896,-23.743,365.723
-0.205,-0.203,0.466,97.961,20.569,325.562
-0.164,-0.286,0.58,69.702,54.26,277.71
-0.15,-0.255,0.639,36.499,73.181,227.478
-0.172,-0.135,0.606,3.052,78.857,178.223
-0.179,0.018,0.499,-30.945,80.811,135.803
-0.174,0.159,0.368,-59.204,89.111,102.905
-0.149,0.269,0.252,-74.646,108.704,76.172
-0.083,0.338,0.146,-77.209,137.695,54.871
0.007,0.389,0.065,-70.923,170.837,39.673
0.101,0.435,0.014,-55.298,205.322,31.982
0.245,0.488,-0.034,-32.043,237.549,30.884
0.405,0.515,-0.081,-2.441,265.442,38.818
0.546,0.533,-0.103,27.222,288.147,57.495
0.661,0.526,-0.113,53.833,302.734,83.252
0.74,0.469,-0.139,78.064,307.617,111.206
0.772,0.335,-0.204,97.412,304.687,137.085
0.802,0.151,-0.331,104.187,296.692,156.372
0.847,-0.016,-0.526,99.426,286.316,166.87
0.901,-0.134,-0.764,90.027,273.071,168.152
0.971,-0.23,-1.071,80.811,253.479,160.889
1.039,-0.249,-1.356,66.467,227.112,148.865
1.078,-0.151,-1.575,52.551,207.092,134.766
1.159,-0.147,-1.774,51.331,205.261,119.995
1.267,-0.217,-1.983,46.143,213.806,101.013
1.442,-0.311,-2.251,32.532,225.83,76.965
1.587,-0.453,-2.43,16.418,244.08,48.889
1.71,-0.36,-2.195,4.456,272.461,4.883
1.877,-0.227,-1.734,8.728,280.09,-42.297
1.771,-0.274,-1.507,16.357,254.089,-82.581
1.563,-0.359,-1.322,13.55,222.961,-106.018
1.458,-0.468,-1.154,-3.113,190.796,-107.544
1.35,-0.544,-0.983,-18.311,153.809,-108.032
1.243,-0.533,-0.824,-15.808,108.887,-110.657
1.191,-0.435,-0.742,-4.395,55.908,-112.915
1.171,-0.313,-0.74,2.014,2.38,-107.178
1.121,-0.26,-0.755,-1.831,-42.969,-88.928
1.013,-0.332,-0.765,-8.728,-77.271,-67.993
0.9,-0.421,-0.771,-8.606,-99.304,-55.054
0.838,-0.486,-0.804,-1.16,-109.009,-46.692
0.765,-0.555,-0.819,0.732,-104.309,-42.847
0.664,-0.578,-0.787,-1.526,-86.67,-48.279
0.655,-0.545,-0.727,-1.526,-61.707,-52.307
0.682,-0.484,-0.64,-5.066,-35.522,-52.795
0.694,-0.49,-0.552,-9.46,-14.16,-52.185
0.699,-0.507,-0.476,-11.841,-0.977,-52.429
0.715,-0.476,-0.399,-12.146,5.371,-51.941
0.763,-0.433,-0.323,-13.794,3.235,-48.706
0.774,-0.397,-0.289,-16.663,-7.324,-44.128
0.751,-0.272,-0.336,-17.883,-21.912,-36.011
0.742,-0.231,-0.397,-16.724,-33.081,-18.921
0.764,-0.254,-0.37,-16.357,-40.222,-5.737
0.666,-0.137,-0.63,-7.69,-50.049,6.287
0.683,-0.558,-0.513,-4.517,-45.532,25.818
0.606,-0.657,-0.449,-0.061,-46.814,-8.179
0.694,-0.276,-0.582,26.55,-60.364,-28.992
0.833,-0.037,-0.583,24.414,-57.434,-6.042
0.75,-0.153,-0.442,-2.38,-52.429,2.441
0.703,-0.369,-0.531,-4.883,-60.303,4.333
0.649,-0.506,-0.794,2.808,-61.829,8.545
0.499,-0.462,-0.915,-3.601,-37.903,-4.578
0.472,-0.367,-0.969,-7.629,2.686,-19.165
0.539,-0.283,-0.951,-11.353,49.927,-24.963
0.627,-0.215,-0.82,-15.808,93.506,-26.001
0.746,-0.177,-0.63,-16.296,120.972,-19.226
0.848,-0.206,-0.431,-11.414,123.84,-9.949
0.893,-0.248,-0.272,-2.197,101.135,-4.211
0.94,-0.271,-0.242,7.141,58.105,0.122
0.902,-0.212,-0.307,12.634,10.315,5.676
0.838,-0.238,-0.411,12.268,-28.87,17.395
0.746,-0.293,-0.518,9.888,-55.969,23.254
0.711,-0.321,-0.589,10.437,-70.129,25.818
0.682,-0.356,-0.662,9.155,-73.242,25.94
0.619,-0.369,-0.728,7.568,-65.063,18.738
0.593,-0.356,-0.755,7.08,-47.852,11.414
0.601,-0.352,-0.758,3.174,-25.696,6.165
0.607,-0.369,-0.731,-2.014,-2.014,0.183
0.639,-0.374,-0.667,-4.883,20.447,-6.042
0.69,-0.353,-0.598,-6.165,36.011,-11.047
0.742,-0.321,-0.533,-6.653,42.542,-15.686
0.793,-0.278,-0.481,-5.615,39.673,-17.151
0.831,-0.255,-0.446,-3.723,28.564,-14.343
0.835,-0.278,-0.441,-2.258,12.085,-9.399
-1.103,-1.256,0.911,6.653,-120.3,32.288
-1.229,-1.42,0.999,4.089,-155.396,40.1
-1.346,-1.503,1.046,-2.441,-195.557,44.25
-1.447,-1.524,1.033,-9.094,-237.244,46.204
-1.489,-1.512,0.976,-16.602,-275.574,50.72
-1.488,-1.432,0.916,-22.705,-302.979,58.899
-1.465,-1.296,0.871,-22.827,-315.369,67.993
-1.436,-1.156,0.869,-18.127,-315.674,82.458
-1.405,-1.058,0.907,-15.808,-306.519,106.75
-1.369,-1.05,0.962,-19.348,-289.795,139.771
-1.324,-1.084,0.957,-34.18,-271.545,177.979
-1.265,-1.076,0.844,-61.035,-253.662,216.797
-1.201,-0.986,0.599,-92.346,-231.201,256.897
-1.185,-0.858,0.311,-120.85,-198.12,304.26
-1.253,-0.781,0.13,-148.071,-150.024,356.384
-1.255,-0.736,-0.042,-170.532,-97.229,393.066
-1.184,-0.655,-0.219,-175.476,-41.931,408.752
-1.077,-0.478,-0.333,-168.884,19.348,413.452
-0.958,-0.242,-0.391,-155.151,82.764,417.664
-0.841,-0.005,-0.386,-136.169,141.357,423.767
-0.698,0.166,-0.336,-112.915,194.336,429.077
-0.513,0.235,-0.245,-82.336,241.455,436.035
-0.317,0.24,-0.103,-43.884,279.907,447.205
-0.126,0.247,0.1,-6.226,302.063,458.435
0.073,0.272,0.319,28.809,301.147,464.966
0.269,0.325,0.615,62.134,273.682,468.506
0.501,0.353,0.954,97.534,215.332,475.098
0.699,0.343,1.186,128.723,122.314,483.704
0.637,0.269,0.973,144.836,6.592,492.554
0.39,0.161,0.641,147.583,-86.304,500.0
0.137,0.058,0.438,156.738,-136.292,500.305
0.013,0.046,0.259,168.701,-162.659,486.389
-0.039,0.061,0.114,160.828,-161.133,467.834
-0.135,-0.006,0.106,143.005,-132.568,448.303
-0.227,-0.154,0.192,126.038,-90.698,417.786
-0.268,-0.287,0.283,106.812,-46.997,372.742
-0.294,-0.359,0.381,81.97,-4.333,318.359
-0.292,-0.366,0.461,48.401,33.02,259.521
-0.255,-0.299,0.492,9.277,63.477,200.867
-0.191,-0.164,0.471,-30.151,89.355,146.912
-0.126,-0.011,0.416,-66.101,113.953,104.065
-0.085,0.12,0.355,-92.651,136.963,70.801
-0.033,0.2,0.279,-108.887,159.851,46.143
0.037,0.276,0.197,-114.746,183.594,27.954
0.092,0.358,0.126,-107.788,206.604,16.357
0.151,0.442,0.068,-90.454,227.905,12.756
0.231,0.514,0.023,-65.308,246.948,17.761
0.33,0.58,-0.04,-31.982,262.024,28.564
0.4,0.614,-0.106,5.31,277.283,48.95
0.466,0.609,-0.171,37.659,295.593,78.552
0.533,0.53,-0.251,63.904,314.026,110.352
0.559,0.424,-0.339,81.116,329.529,138.489
0.605,0.192,-0.421,86.426,338.806,159.485
0.583,0.043,-0.518,80.322,339.661,163.025
0.591,-0.023,-0.735,70.862,333.069,159.973
0.62,-0.161,-1.028,54.321,320.19,152.283
0.745,-0.276,-1.384,35.278,289.673,128.601
1.055,-0.227,-1.803,28.931,221.069,90.027
1.507,-0.112,-2.244,44.006,138.733,43.274
1.239,-0.094,-3.067,83.557,100.647,-14.404
1.064,-0.226,-3.691,104.919,193.909,-52.063
1.442,-0.257,-2.757,32.959,330.078,-77.209
1.865,-0.481,-1.805,-25.635,402.832,-110.596
1.907,-0.589,-1.3,-41.077,398.926,-133.972
1.778,-0.527,-1.103,-45.288,335.815,-142.456
1.638,-0.413,-0.992,-46.326,245.544,-131.226
1.532,-0.334,-0.902,-43.03,143.921,-116.76
1.428,-0.345,-0.921,-24.78,43.335,-109.436
1.339,-0.376,-1.029,-4.395,-40.527,-92.651
1.212,-0.384,-1.113,0.549,-96.069,-66.345
1.065,-0.478,-1.128,-1.099,-122.803,-41.687
0.936,-0.663,-1.08,-2.686,-128.662,-28.687
0.823,-0.814,-0.999,0.244,-122.07,-31.067
0.752,-0.834,-0.929,7.507,-108.459,-42.969
0.724,-0.759,-0.864,11.047,-89.722,-54.626
0.721,-0.658,-0.755,6.226,-67.627,-62.256
0.748,-0.571,-0.625,-1.465,-48.462,-62.927
0.792,-0.515,-0.522,-7.568,-38.208,-54.993
0.79,-0.498,-0.481,-12.573,-36.255,-41.931
0.744,-0.568,-0.487,-16.113,-37.231,-30.579
0.65,-0.614,-0.394,-16.602,-36.316,-28.32
0.695,-0.667,-0.488,-11.963,-38.391,-32.043
0.593,-0.46,-0.615,-10.254,-32.41,-39.978
0.571,-0.391,-0.573,-10.681,-10.376,-31.25
0.621,-0.327,-0.505,-15.991,8.728,-21.545
0.719,-0.395,-0.501,-12.146,16.785,-14.038
0.676,-0.462,-0.518,-9.888,21.118,-6.836
0.615,-0.411,-0.527,-7.568,23.682,-7.935
0.657,-0.403,-0.551,-5.005,23.621,-4.089
0.665,-0.373,-0.573,-6.714,24.109,-6.714
0.666,-0.339,-0.598,-7.385,23.682,-5.432
0.667,-0.314,-0.584,-7.568,21.24,-1.953
0.691,-0.334,-0.571,-6.653,13.245,-0.244
0.704,-0.335,-0.579,-3.784,1.404,-0.732
0.704,-0.323,-0.57,-0.793,-11.047,0.0
0.711,-0.306,-0.544,-0.732,-24.231,1.587
0.732,-0.303,-0.533,-0.977,-39.795,2.808
0.726,-0.299,-0.579,-0.977,-55.115,4.7
0.679,-0.296,-0.664,-1.892,-64.88,8.484
0.609,-0.321,-0.733,-4.883,-62.988,12.695
0.562,-0.352,-0.776,-7.08,-51.208,12.146
0.55,-0.359,-0.804,-5.798,-33.081,8.484
0.569,-0.32,-0.803,-5.249,-10.925,5.615
0.576,-0.282,-0.754,-6.042,11.719,5.31
0.649,-0.29,-0.705,-5.127,29.724,5.981
0.709,-0.298,-0.678,-1.587,39.612,4.822
0.607,-0.29,-0.58,4.517,43.396,2.93
0.745,-0.415,-0.486,9.155,39.001,1.526
0.761,-0.305,-0.552,13.55,23.743,-9.155
0.7,-0.401,-0.489,11.414,14.954,-2.808
0.691,-0.343,-0.484,3.235,5.066,-9.766
0.743,-0.408,-0.525,2.808,-8.301,-8.362
0.694,-0.331,-0.523,-3.235,-15.991,-11.475
0.696,-0.348,-0.529,-6.104,-23.926,-8.118
0.693,-0.372,-0.545,-10.803,-29.785,-7.141
0.686,-0.403,-0.578,-11.963,-33.997,-7.996
0.645,-0.412,-0.631,-12.024,-34.546,-8.789
0.612,-0.408,-0.704,-10.62,-29.053,-11.902
0.61,-0.358,-0.749,-8.179,-15.564,-13.489
-0.974,-1.106,0.745,-2.258,-67.017,37.598
-1.086,-1.227,0.802,-2.502,-80.811,51.88
-1.177,-1.312,0.857,-6.836,-94.055,67.2
-1.237,-1.371,0.888,-13.977,-109.741,78.979
-1.274,-1.403,0.903,-18.86,-127.258,87.097
-1.282,-1.42,0.908,-20.081,-145.02,91.98
-1.289,-1.405,0.916,-20.081,-161.926,94.238
-1.291,-1.358,0.91,-21.79,-181.641,94.299
-1.263,-1.301,0.853,-23.682,-208.069,95.215
-1.247,-1.257,0.776,-27.1,-237.122,101.929
-1.252,-1.229,0.715,-35.828,-262.146,115.906
-1.25,-1.219,0.679,-45.593,-278.381,134.216
-1.247,-1.215,0.648,-55.908,-285.156,151.367
-1.228,-1.218,0.6,-67.749,-283.691,166.931
-1.198,-1.198,0.516,-83.13,-273.315,181.702
-1.177,-1.122,0.39,-100.464,-250.305,197.388
-1.176,-0.979,0.239,-119.751,-213.745,215.271
-1.193,-0.838,0.125,-138.184,-165.466,238.77
-1.185,-0.733,0.083,-155.09,-109.436,264.282
-1.087,-0.65,0.039,-165.466,-54.382,284.424
-0.958,-0.546,-0.019,-163.391,-4.639,297.974
-0.849,-0.406,-0.054,-155.212,41.321,309.082
-0.733,-0.247,-0.068,-145.691,84.229,319.763
-0.597,-0.113,-0.063,-134.216,122.437,330.322
-0.433,-0.022,-0.032,-119.324,155.823,341.309
-0.265,0.055,0.039,-97.412,181.702,356.14
-0.11,0.148,0.152,-71.35,192.993,372.498
0.066,0.265,0.278,-43.152,187.622,390.93
0.247,0.412,0.437,-12.39,165.771,412.292
0.418,0.53,0.615,23.254,129.028,437.5
0.506,0.531,0.758,57.739,77.271,464.417
0.516,0.453,0.763,81.726,16.418,493.164
0.413,0.344,0.624,101.807,-39.185,517.212
0.172,0.286,0.479,126.099,-77.393,532.349
0.032,0.274,0.303,148.865,-95.703,537.109
-0.076,0.308,0.213,160.889,-91.248,532.349
-0.202,0.283,0.265,166.626,-66.406,523.01
-0.321,0.163,0.408,166.504,-28.564,500.671
-0.419,0.009,0.56,156.921,12.512,464.294
-0.501,-0.123,0.686,133.179,55.664,415.71
-0.559,-0.214,0.755,98.755,98.022,358.643
-0.554,-0.219,0.731,49.561,133.85,295.105
-0.496,-0.099,0.621,-7.324,161.011,229.614
-0.426,0.049,0.442,-53.04,181.03,166.26
-0.347,0.211,0.23,-87.952,199.646,109.558
-0.246,0.363,0.017,-110.535,224.487,63.477
-0.107,0.509,-0.167,-108.032,257.08,30.701
0.065,0.648,-0.32,-77.698,294.128,12.573
0.27,0.738,-0.42,-28.931,329.224,10.132
0.501,0.733,-0.455,21.423,355.713,23.621
0.722,0.608,-0.432,67.627,368.896,49.316
0.894,0.386,-0.411,110.596,361.45,76.538
0.98,0.167,-0.459,148.315,333.923,95.947
1.016,0.037,-0.613,175.415,296.814,109.375
1.067,-0.055,-0.866,191.711,261.108,121.033
1.137,-0.19,-1.199,197.876,227.173,126.343
1.193,-0.35,-1.55,187.866,193.42,121.338
1.247,-0.483,-1.832,168.701,168.945,105.896
1.279,-0.53,-1.947,147.217,160.4,80.322
1.33,-0.51,-1.928,123.169,168.091,49.683
1.413,-0.525,-1.721,96.252,182.495,23.987
1.485,-0.538,-1.541,68.42,183.777,-0.244
1.529,-0.381,-1.371,47.302,166.687,-19.409
1.495,-0.292,-1.384,33.936,136.292,-24.17
1.39,-0.135,-1.297,23.621,110.046,-27.771
1.392,-0.12,-1.28,25.696,83.374,-17.517
1.34,-0.22,-1.25,26.917,61.096,-5.676
1.214,-0.321,-1.187,30.151,46.204,0.488
1.138,-0.371,-1.145,39.124,37.231,2.136
1.035,-0.365,-1.063,44.373,35.217,-2.197
1.007,-0.38,-0.936,42.297,39.063,-8.362
1.01,-0.472,-0.844,33.508,40.588,-12.695
0.968,-0.547,-0.748,19.775,41.138,-22.766
0.974,-0.548,-0.628,5.493,37.292,-33.875
1.0,-0.448,-0.578,-7.812,23.621,-42.358
0.965,-0.356,-0.572,-17.883,5.859,-44.067
0.913,-0.293,-0.548,-24.597,-8.301,-41.931
0.883,-0.303,-0.535,-23.56,-19.653,-35.828
0.89,-0.315,-0.476,-19.653,-28.748,-31.433
0.902,-0.274,-0.489,-13.733,-40.894,-24.048
0.86,-0.445,-0.557,-12.085,-50.842,-16.296
0.657,-0.421,-0.673,-11.475,-50.293,-24.353
0.641,-0.455,-0.709,-8.057,-36.255,-26.489
0.642,-0.385,-0.666,-13.855,-14.832,-37.964
0.718,-0.275,-0.621,-18.555,4.028,-43.213
0.81,-0.199,-0.477,-24.292,16.602,-35.217
0.82,0.06,-0.442,-25.085,10.254,-22.644
0.87,-0.165,-0.558,-25.452,-4.211,6.348
0.621,-0.315,-0.536,-28.564,-7.751,7.385
0.682,-0.272,-0.54,-11.963,-10.498,4.944
0.748,-0.287,-0.674,-6.104,-13.55,4.761
0.589,-0.274,-0.675,-9.583,-2.441,-8.118
0.616,-0.206,-0.65,-8.362,10.986,-8.728
0.697,-0.187,-0.631,-12.39,19.226,-6.042
0.703,-0.293,-0.549,-19.165,23.315,-6.714
0.713,-0.267,-0.441,-21.24,17.517,-9.888
0.802,-0.225,-0.494,-20.935,0.549,-7.385
0.733,-0.299,-0.533,-28.137,-12.451,-5.554
0.635,-0.44,-0.549,-31.311,-18.25,-11.841
0.618,-0.201,-0.595,-22.827,-22.522,-23.193
0.702,-0.11,-0.702,-18.86,-22.705,-12.512
0.586,-0.205,-0.682,-31.494,-9.399,-6.226
0.548,-0.304,-0.668,-32.471,5.188,-3.052
0.601,-0.298,-0.658,-27.527,17.334,-0.549
0.63,-0.267,-0.663,-25.879,28.015,-2.319
0.625,-0.291,-0.62,-29.358,36.865,0.183
0.62,-0.33,-0.561,-34.424,41.931,-0.061
0.659,-0.385,-0.522,-39.917,40.405,-0.122
0.664,-0.446,-0.477,-51.697,34.485,-2.991
0.645,-0.477,-0.432,-67.871,24.902,-8.118
0.634,-0.43,-0.411,-85.815,14.16,-11.353
0.624,-0.478,-0.4,-105.469,4.944,-11.047
0.57,-0.499,-0.374,-126.465,-2.563,-18.372
0.556,-0.546,-0.392,-143.616,-10.62,-26.245
0.53,-0.556,-0.414,-160.889,-16.479,-36.438
0.506,-0.583,-0.426,-176.331,-18.433,-49.683
0.477,-0.568,-0.457,-187.195,-18.738,-65.796
0.471,-0.64,-0.5,-193.97,-15.198,-80.322
0.444,-0.719,-0.492,-201.66,-7.935,-103.21
-1.252,-0.803,0.966,-12.085,-27.222,7.446
-1.527,-0.935,1.063,-19.653,-42.786,10.925
-1.785,-1.05,1.207,-26.855,-67.749,14.526
-2.036,-0.972,1.31,-25.452,-103.149,14.771
-2.212,-0.876,1.262,-11.292,-142.151,23.804
-2.216,-0.787,1.307,9.399,-166.382,42.419
-2.221,-0.628,1.214,33.813,-184.509,72.327
-2.128,-0.679,1.147,60.791,-192.993,121.216
-1.958,-0.862,1.115,80.566,-195.618,178.101
-1.844,-1.015,0.934,82.336,-194.58,224.548
-1.86,-1.044,0.543,72.144,-173.645,258.484
-1.729,-1.145,0.517,55.664,-112.244,289.551
-1.569,-1.143,0.474,25.574,-48.157,311.462
-1.396,-0.828,0.48,-15.503,7.324,334.656
-1.093,-0.728,0.388,-50.11,40.833,376.526
-0.87,-0.726,0.318,-73.914,63.721,414.612
-0.741,-0.59,0.314,-88.074,83.069,445.068
-0.566,-0.136,0.259,-93.262,88.44,481.14
-0.43,0.198,0.067,-91.553,83.496,532.776
-0.399,0.267,-0.081,-79.285,89.539,577.271
-0.306,0.132,-0.025,-51.147,108.765,599.548
-0.177,0.179,0.175,-11.23,120.911,599.792
-0.078,0.45,0.254,27.527,109.741,601.135
0.008,0.711,0.331,57.495,83.374,620.3
0.097,0.888,0.459,86.731,48.645,640.564
0.198,0.919,0.518,116.15,7.568,658.813
0.299,0.823,0.513,143.433,-33.447,677.368
0.342,0.613,0.521,173.95,-71.472,687.134
0.359,0.322,0.637,210.51,-109.863,668.091
0.208,0.082,0.715,256.226,-160.767,617.554
-0.005,-0.058,0.67,281.189,-208.557,554.443
-0.183,-0.108,0.64,256.958,-221.497,495.422
-0.408,-0.244,0.662,215.82,-205.505,435.364
-0.635,-0.447,0.717,164.124,-172.058,368.713
-0.806,-0.58,0.756,97.473,-124.939,295.288
-0.931,-0.567,0.672,25.452,-70.251,221.924
-0.97,-0.426,0.521,-44.861,-6.653,152.588
-0.889,-0.204,0.378,-107.056,64.941,86.914
-0.711,0.094,0.24,-153.259,136.414,29.846
-0.496,0.432,0.102,-176.208,201.843,-9.033
-0.305,0.752,0.009,-173.401,257.69,-27.832
-0.171,0.972,-0.007,-150.269,301.514,-28.687
-0.007,1.082,0.001,-114.319,330.872,-17.639
0.206,1.148,-0.0,-68.542,346.375,1.465
0.305,1.159,0.003,-13.367,351.257,34.058
0.306,1.1,-0.068,38.696,345.52,77.942
0.3,0.931,-0.217,85.571,334.167,121.46
0.3,0.7,-0.358,125.793,326.965,154.907
0.282,0.528,-0.5,156.555,325.806,176.758
0.319,0.421,-0.585,171.143,331.36,191.345
0.4,0.296,-0.619,171.997,337.219,195.74
0.455,0.087,-0.754,165.466,329.041,185.913
0.417,-0.136,-1.176,152.893,306.396,156.921
0.609,-0.215,-1.555,130.127,286.255,113.647
0.794,-0.279,-1.845,89.417,269.043,72.327
1.081,-0.268,-2.091,46.509,248.291,24.658
1.214,-0.327,-2.328,26.855,231.628,-16.113
1.25,-0.281,-2.434,19.47,232.971,-49.866
1.405,-0.163,-2.544,14.771,253.174,-68.42
1.388,-0.055,-2.639,4.7,297.668,-57.678
1.604,0.064,-2.219,-23.193,337.219,-31.372
1.907,-0.311,-1.892,-34.424,319.397,-17.029
1.811,-0.423,-1.713,-3.418,258.362,-19.653
1.599,-0.426,-1.776,40.283,179.504,-18.005
1.395,-0.576,-1.891,62.317,116.455,-26.062
1.342,-0.394,-1.816,65.491,85.632,-45.654
1.327,-0.384,-1.745,48.401,69.885,-35.583
1.03,-0.539,-1.466,4.456,70.618,-22.034
0.97,-0.692,-1.162,-20.264,67.871,-24.78
1.117,-0.666,-0.83,-18.799,52.246,-28.442
1.045,-0.663,-0.614,-20.02,17.09,-33.63
0.972,-0.615,-0.532,-16.296,-31.677,-52.856
0.978,-0.511,-0.577,-4.761,-81.665,-62.988
0.883,-0.385,-0.709,-4.761,-117.676,-60.303
0.738,-0.399,-0.821,-9.521,-129.822,-50.11
0.649,-0.543,-0.892,-12.451,-120.911,-39.551
0.603,-0.579,-0.873,-13.55,-98.083,-36.377
0.642,-0.542,-0.791,-15.32,-72.571,-33.264
0.653,-0.498,-0.7,-20.813,-51.819,-31.433
0.621,-0.438,-0.697,-23.132,-35.4,-31.006
0.665,-0.408,-0.656,-23.804,-16.724,-24.231
0.745,-0.496,-0.478,-27.039,-1.465,-19.409
0.723,-0.441,-0.425,-19.897,-3.906,-26.672
0.752,-0.301,-0.512,-9.949,-14.587,-23.315
0.767,-0.188,-0.541,-10.437,-20.569,-14.709
0.678,-0.263,-0.587,-11.23,-26.062,-5.371
0.712,-0.307,-0.553,-9.033,-32.471,-0.916
0.817,-0.321,-0.61,-1.343,-45.776,-2.747
0.672,-0.281,-0.81,1.831,-56.824,-3.784
0.565,-0.139,-0.897,-1.77,-48.462,-3.967
0.591,-0.113,-0.914,-10.01,-26.367,5.676
0.596,-0.18,-0.852,-20.874,-0.671,8.484
0.615,-0.255,-0.747,-22.583,20.142,6.958
0.655,-0.278,-0.655,-19.226,29.907,3.479
0.676,-0.268,-0.597,-13.733,28.687,-4.761
0.69,-0.229,-0.585,-8.179,20.325,-12.024
0.711,-0.166,-0.591,-7.019,10.803,-12.695
0.712,-0.126,-0.597,-8.179,1.831,-7.324
0.699,-0.132,-0.595,-9.583,-6.775,-0.732
0.697,-0.172,-0.609,-9.949,-16.846,4.944
0.684,-0.215,-0.63,-10.437,-26.917,8.423
0.658,-0.235,-0.653,-10.62,-34.485,7.935
0.633,-0.241,-0.673,-9.399,-38.757,5.066
0.612,-0.242,-0.689,-8.728,-39.429,1.831
0.6,-0.246,-0.687,-9.155,-35.889,-0.916
0.592,-0.24,-0.679,-9.827,-29.114,-3.052
0.594,-0.26,-0.68,-10.315,-20.874,-4.7
0.588,-0.277,-0.682,-10.986,-12.085,-7.812
0.615,-0.25,-0.656,-10.254,-3.174,-10.925
0.644,-0.23,-0.635,-9.46,2.686,-10.132
0.648,-0.237,-0.63,-9.827,5.371,-9.644
0.656,-0.243,-0.642,-8.057,6.531,-8.972
0.663,-0.245,-0.644,-6.653,6.714,-5.798
0.677,-0.24,-0.633,-5.188,5.615,-4.333
0.694,-0.253,-0.634,-1.892,2.686,-2.808
0.692,-0.275,-0.644,1.587,-0.488,-1.343
0.687,-0.284,-0.657,5.005,-3.296,-1.038
0.68,-0.291,-0.666,7.568,-4.456,-1.282
0.679,-0.303,-0.665,8.423,-4.028,-2.014
-1.158,-0.647,0.934,2.93,-32.593,51.392
-1.249,-0.75,0.915,8.911,-49.316,73.669
-1.333,-0.888,0.912,13.55,-68.054,95.276
-1.434,-1.005,0.925,15.625,-84.534,114.014
-1.531,-1.111,0.979,14.404,-97.595,127.747
-1.535,-1.182,1.012,8.179,-108.032,132.263
-1.504,-1.201,1.01,0.488,-119.934,125.488
-1.471,-1.204,1.0,-9.583,-136.597,114.319
-1.432,-1.179,0.969,-24.17,-157.837,105.103
-1.424,-1.124,0.911,-41.87,-182.129,100.342
-1.428,-1.085,0.841,-57.983,-206.665,100.464
-1.401,-1.079,0.75,-70.557,-229.248,104.797
-1.374,-1.052,0.619,-82.092,-245.911,111.938
-1.3,-0.988,0.535,-92.407,-248.779,124.817
-1.225,-0.863,0.431,-95.154,-234.985,143.799
-1.177,-0.729,0.318,-95.276,-205.383,167.969
-1.155,-0.633,0.27,-93.018,-160.278,200.806
-1.108,-0.566,0.245,-93.445,-106.567,230.591
-0.996,-0.499,0.199,-92.163,-53.711,254.211
-0.87,-0.412,0.153,-89.539,-5.005,279.236
-0.751,-0.306,0.141,-86.67,39.429,307.922
-0.634,-0.211,0.147,-80.505,75.806,336.365
-0.508,-0.142,0.15,-70.984,101.013,361.206
-0.382,-0.092,0.151,-59.082,116.577,384.033
-0.279,-0.031,0.158,-45.776,125.671,405.273
-0.198,0.057,0.179,-32.349,129.7,423.767
-0.132,0.152,0.198,-17.273,128.601,440.308
-0.089,0.221,0.223,-1.221,124.451,454.041
-0.046,0.257,0.264,13.123,116.943,466.675
0.019,0.266,0.293,28.687,104.309,477.844
0.102,0.289,0.311,46.204,87.463,487.122
0.152,0.323,0.327,67.932,67.017,496.765
0.162,0.351,0.332,90.332,39.612,508.545
0.169,0.365,0.323,112.366,8.118,521.79
0.101,0.359,0.322,138.123,-19.653,534.485
0.065,0.324,0.283,168.03,-42.48,540.894
0.045,0.25,0.237,188.416,-53.955,538.147
-0.001,0.171,0.242,194.946,-51.453,529.846
-0.051,0.075,0.282,192.81,-36.011,513.916
-0.102,-0.066,0.354,180.908,-8.728,485.779
-0.139,-0.23,0.453,155.579,25.574,445.374
-0.164,-0.331,0.54,118.896,59.875,392.456
-0.186,-0.319,0.569,72.144,89.6,328.43
-0.179,-0.192,0.554,14.16,111.877,263.672
-0.119,0.001,0.468,-42.542,128.54,205.872
-0.042,0.193,0.327,-80.444,144.836,153.809
0.068,0.335,0.172,-95.032,161.926,111.084
0.181,0.459,0.021,-95.215,181.091,79.468
0.289,0.536,-0.12,-78.308,206.299,59.326
0.412,0.557,-0.233,-47.302,236.267,53.772
0.573,0.535,-0.311,-11.78,267.517,60.791
0.73,0.474,-0.348,25.879,294.373,75.134
0.842,0.386,-0.38,63.782,311.951,93.75
0.918,0.274,-0.453,97.168,320.618,112.732
0.963,0.169,-0.589,123.474,323.181,127.563
1.074,0.094,-0.662,138.367,318.298,139.404
1.104,0.0,-0.778,138.916,295.654,147.095
1.054,-0.101,-1.081,131.409,260.62,143.982
1.055,-0.264,-1.321,120.667,233.643,126.648
1.014,-0.22,-1.486,107.971,222.473,95.642
1.158,-0.067,-1.491,91.553,223.816,70.435
1.151,-0.053,-1.401,80.261,224.548,43.701
1.186,-0.059,-1.278,80.444,214.905,14.16
1.316,-0.021,-1.205,84.534,192.2,-9.827
1.273,0.017,-1.14,83.74,164.307,-23.743
1.198,0.039,-1.202,80.933,137.939,-31.128
1.102,0.03,-1.228,79.834,118.713,-34.241
1.136,-0.07,-1.278,73.975,103.577,-32.715
1.11,-0.159,-1.365,65.002,91.309,-34.18
1.103,-0.191,-1.311,53.711,85.144,-30.884
1.147,-0.269,-1.207,36.987,73.975,-25.513
1.165,-0.406,-1.228,21.545,53.894,-25.818
1.06,-0.469,-1.298,12.817,38.147,-35.278
0.975,-0.407,-1.322,8.606,35.95,-48.035
0.921,-0.269,-1.267,7.202,44.006,-57.373
0.924,-0.295,-1.106,9.216,53.345,-58.838
0.979,-0.427,-0.988,11.597,53.65,-64.514
0.975,-0.402,-0.959,16.846,46.509,-73.669
0.927,-0.35,-0.856,14.771,40.405,-66.04
0.911,-0.416,-0.737,0.549,29.236,-59.509
0.933,-0.412,-0.701,-7.202,9.888,-58.838
0.915,-0.35,-0.685,-8.972,-11.475,-48.95
0.81,-0.311,-0.675,-14.404,-29.602,-41.687
0.769,-0.299,-0.709,-17.151,-41.809,-36.865
0.761,-0.317,-0.731,-20.081,-45.837,-26.917
0.712,-0.369,-0.727,-24.597,-42.847,-19.836
0.692,-0.364,-0.724,-26.733,-38.818,-17.7
0.685,-0.317,-0.732,-25.33,-33.508,-15.381
0.657,-0.266,-0.726,-23.376,-25.696,-13.489
0.659,-0.242,-0.709,-22.339,-16.907,-11.719
0.674,-0.25,-0.672,-22.522,-9.46,-7.69
0.693,-0.265,-0.626,-23.743,-6.287,-5.127
0.701,-0.245,-0.593,-21.057,-8.789,-4.333
0.695,-0.192,-0.586,-15.015,-14.709,-3.174
0.674,-0.16,-0.592,-10.559,-20.691,0.0
0.66,-0.182,-0.61,-8.667,-24.475,4.517
0.664,-0.224,-0.628,-7.751,-26.001,7.935
0.673,-0.231,-0.636,-8.606,-26.978,9.705
0.662,-0.217,-0.638,-11.292,-28.625,10.986
0.637,-0.214,-0.646,-14.16,-29.907,9.949
0.627,-0.214,-0.672,-13.733,-29.175,5.737
0.62,-0.181,-0.697,-12.329,-24.536,1.038
0.602,-0.172,-0.688,-13.977,-16.174,-0.977
0.598,-0.192,-0.662,-18.25,-6.348,-3.357
0.629,-0.194,-0.64,-20.02,2.014,-6.897
0.657,-0.152,-0.618,-19.043,8.118,-9.033
0.658,-0.101,-0.611,-14.587,10.254,-9.766
0.648,-0.059,-0.632,-6.714,10.01,-9.827
0.657,-0.059,-0.657,0.366,12.024,-6.653
0.674,-0.11,-0.657,1.892,16.602,-0.732
0.687,-0.184,-0.633,-1.282,20.996,4.456
0.704,-0.228,-0.616,-5.249,20.691,4.7
0.716,-0.21,-0.628,-6.836,15.32,0.854
0.714,-0.154,-0.653,-7.263,8.24,-2.686
0.71,-0.116,-0.673,-8.911,3.113,-2.686
0.708,-0.121,-0.668,-10.742,0.244,-0.61
0.706,-0.16,-0.652,-12.634,-1.77,0.854
0.699,-0.204,-0.642,-13.977,-4.333,0.122
0.693,-0.217,-0.648,-14.221,-7.019,-2.502
-1.268,-0.847,0.869,-7.08,-62.317,25.818
-1.355,-0.921,0.913,-8.118,-84.595,29.541
-1.456,-0.934,0.949,-8.301,-106.14,35.889
-1.564,-0.886,0.994,-7.996,-126.099,46.326
-1.672,-0.858,1.022,-1.404,-147.156,59.875
-1.765,-0.895,1.039,10.01,-172.18,75.623
-1.831,-1.007,1.032,19.958,-202.148,91.919
-1.858,-1.162,0.985,23.804,-235.596,107.239
-1.827,-1.29,0.892,19.714,-271.362,122.314
-1.755,-1.341,0.792,5.92,-302.795,140.015
-1.674,-1.315,0.688,-13.184,-325.073,159.302
-1.57,-1.275,0.558,-33.142,-334.778,178.589
-1.448,-1.147,0.34,-54.26,-325.012,199.646
-1.41,-1.02,0.092,-73.669,-290.344,226.379
-1.474,-0.98,-0.028,-102.844,-232.056,266.357
-1.441,-0.935,-0.123,-145.02,-164.734,306.091
-1.322,-0.848,-0.239,-176.941,-97.412,332.642
-1.211,-0.671,-0.352,-196.533,-28.564,351.074
-1.126,-0.41,-0.415,-210.449,37.72,368.164
-1.03,-0.155,-0.426,-217.834,97.595,384.094
-0.908,0.055,-0.412,-215.759,150.635,399.353
-0.776,0.231,-0.363,-200.134,199.707,412.598
-0.631,0.378,-0.307,-167.419,240.112,422.607
-0.456,0.519,-0.227,-127.38,270.325,430.481
-0.26,0.62,-0.107,-83.74,290.344,439.941
-0.064,0.689,0.103,-34.302,296.021,455.811
0.161,0.711,0.418,13.0,279.602,473.755
0.448,0.673,0.802,57.556,231.812,490.54
0.752,0.583,1.163,94.727,144.653,511.169
0.851,0.461,1.163,117.676,21.24,533.752
0.501,0.361,0.703,120.239,-102.539,554.199
0.144,0.284,0.391,125.244,-172.241,569.641
-0.044,0.25,0.222,145.02,-195.374,574.402
-0.236,0.245,0.175,168.579,-191.528,565.979
-0.298,0.256,0.183,181.763,-168.03,545.41
-0.322,0.176,0.304,185.242,-128.784,522.583
-0.359,0.04,0.49,178.223,-82.642,493.896
-0.408,-0.088,0.679,160.278,-40.588,452.82
-0.432,-0.176,0.773,132.751,-7.446,402.161
-0.483,-0.208,0.761,93.323,19.348,348.267
-0.566,-0.182,0.663,42.114,44.25,292.725
-0.632,-0.136,0.486,-12.207,71.045,238.464
-0.623,-0.083,0.257,-65.308,99.854,184.753
-0.56,-0.005,0.017,-110.718,134.277,131.836
-0.474,0.107,-0.212,-137.756,178.101,80.261
-0.343,0.249,-0.415,-145.752,230.835,33.325
-0.148,0.411,-0.58,-136.536,290.344,-2.991
0.103,0.57,-0.717,-109.436,353.088,-23.315
0.353,0.681,-0.748,-70.801,413.33,-20.264
0.625,0.721,-0.709,-30.579,459.045,1.221
0.876,0.692,-0.632,11.047,478.149,33.447
1.078,0.595,-0.59,53.284,466.003,72.266
1.203,0.412,-0.651,94.543,424.255,109.558
1.283,0.286,-0.872,131.042,356.445,136.169
1.382,0.158,-1.173,152.466,276.55,155.273
1.509,-0.011,-1.487,154.785,203.003,165.649
1.526,-0.274,-1.759,144.043,150.208,161.865
1.463,-0.513,-1.968,123.535,124.39,135.315
1.461,-0.626,-2.142,98.389,124.817,91.614
1.582,-0.529,-2.199,70.251,143.921,41.199
1.773,-0.307,-2.076,42.48,164.429,-5.066
1.901,-0.084,-1.832,17.212,168.152,-34.973
2.04,-0.111,-1.428,-0.977,145.63,-45.41
1.905,-0.13,-1.528,-9.583,96.008,-50.659
1.617,-0.093,-1.389,-11.047,65.186,-46.509
1.514,-0.223,-1.172,-15.137,41.077,-32.532
1.411,-0.382,-1.217,-10.681,12.573,-32.349
1.17,-0.515,-1.309,0.671,5.249,-35.828
0.962,-0.549,-1.162,3.662,24.841,-44.128
0.948,-0.569,-1.047,6.042,47.913,-57.068
0.974,-0.544,-0.915,6.653,68.97,-70.068
0.981,-0.477,-0.696,2.075,86.06,-75.867
1.031,-0.439,-0.459,-3.784,87.097,-72.266
1.056,-0.413,-0.299,-8.85,66.589,-65.247
1.019,-0.439,-0.245,-11.536,32.654,-56.641
0.954,-0.431,-0.241,-14.954,-3.601,-47.852
0.908,-0.408,-0.316,-19.47,-36.011,-37.476
0.808,-0.385,-0.434,-22.949,-57.556,-28.259
0.712,-0.361,-0.533,-24.048,-63.599,-20.203
0.648,-0.36,-0.584,-21.912,-55.847,-13.672
0.62,-0.362,-0.596,-15.259,-39.795,-12.634
0.647,-0.332,-0.578,-3.479,-21.729,-14.832
0.639,-0.268,-0.586,4.944,-8.362,-13.794
0.735,-0.245,-0.504,6.287,0.916,-8.362
0.698,-0.271,-0.439,5.371,2.014,-5.005
0.761,-0.222,-0.384,2.869,-7.019,-0.366
0.824,-0.505,-0.25,-2.93,-21.973,2.38
0.868,-0.295,-0.312,-5.798,-52.307,-19.165
0.795,-0.296,-0.489,-0.549,-81.726,-16.235
0.554,-0.264,-0.76,-11.23,-90.21,-23.865
0.536,-0.21,-1.067,-12.756,-69.641,-28.503
0.496,-0.091,-1.056,-19.104,-14.954,-23.193
0.536,-0.033,-0.888,-29.785,40.1,-10.559
0.649,-0.228,-0.663,-31.494,73.792,-2.808
0.786,-0.444,-0.505,-20.325,79.285,-16.113
0.971,-0.073,-0.422,2.441,63.477,-28.687
0.906,-0.07,-0.492,8.179,38.513,-2.563
0.644,-0.159,-0.448,-11.047,20.386,4.028
0.77,-0.35,-0.588,-3.418,1.221,6.165
0.76,-0.373,-0.672,3.906,-6.409,3.296
0.604,-0.288,-0.674,3.174,-3.601,-5.127
0.622,-0.269,-0.704,4.639,0.122,-9.766
0.737,-0.221,-0.673,4.211,6.47,-13.977
0.745,-0.2,-0.599,1.16,10.559,-7.446
0.737,-0.23,-0.519,-2.319,6.836,0.854
0.793,-0.274,-0.461,-1.831,-5.005,4.639
0.805,-0.299,-0.457,0.793,-22.4,6.165
0.757,-0.321,-0.509,1.282,-40.222,6.348
0.674,-0.36,-0.62,-0.488,-51.331,4.456
0.611,-0.377,-0.737,-3.174,-48.462,-0.549
0.598,-0.337,-0.806,-3.967,-30.64,-6.165
0.616,-0.232,-0.783,-5.371,-4.761,-8.545
0.696,-0.161,-0.672,-7.507,19.47,-4.761
0.776,-0.182,-0.539,-6.531,31.189,2.258
0.821,-0.272,-0.456,-1.038,26.123,8.179
0.866,-0.324,-0.469,5.859,9.399,9.644
0.802,-0.268,-0.514,10.986,-7.935,10.498
0.734,-0.359,-0.586,10.01,-19.592,13.916
0.735,-0.361,-0.696,8.423,-22.888,4.272
-1.493,-0.655,0.922,-10.559,-45.776,26.917
-1.654,-0.744,0.948,-7.935,-64.331,34.546
-1.776,-0.768,1.01,-3.906,-83.13,38.086
-1.747,-0.734,1.267,4.578,-105.652,38.757
-1.808,-0.666,1.216,12.573,-144.897,42.847
-1.867,-0.617,1.142,18.494,-176.331,53.833
-1.941,-0.649,1.061,30.029,-200.073,71.167
-2.022,-0.792,0.992,38.635,-219.666,92.407
-2.049,-1.002,0.946,36.438,-236.633,112.915
-2.021,-1.198,0.848,24.658,-253.052,130.554
-1.938,-1.322,0.762,4.578,-265.381,144.104
-1.898,-1.284,0.535,-24.231,-266.418,156.433
-1.836,-1.136,0.228,-55.481,-240.173,174.866
-1.698,-0.971,0.071,-80.444,-181.091,202.148
-1.682,-0.73,-0.062,-98.328,-101.257,236.45
-1.634,-0.53,-0.166,-123.535,-14.221,276.367
-1.481,-0.374,-0.271,-140.93,71.838,317.871
-1.229,-0.188,-0.272,-144.714,152.1,352.539
-0.997,0.027,-0.28,-136.963,216.248,382.996
-0.751,0.272,-0.281,-126.831,262.756,415.955
-0.504,0.466,-0.22,-107.3,295.166,454.468
-0.286,0.629,-0.103,-74.036,310.242,487.61
-0.061,0.766,0.054,-31.494,304.993,517.822
0.164,0.862,0.272,9.644,279.358,550.415
0.379,0.882,0.525,42.48,233.887,584.351
0.574,0.86,0.809,70.679,164.734,619.873
0.598,0.776,0.819,100.098,70.19,653.259
0.364,0.709,0.533,127.441,-23.254,678.65
0.228,0.574,0.536,161.255,-75.378,689.88
0.165,0.518,0.526,203.369,-117.31,683.167
0.069,0.51,0.367,237.549,-156.921,669.373
-0.067,0.444,0.304,253.845,-173.34,657.166
-0.143,0.291,0.405,261.169,-169.861,640.686
-0.278,0.14,0.505,266.113,-161.865,613.586
-0.413,0.004,0.537,260.803,-150.452,579.163
-0.576,-0.124,0.634,234.619,-120.789,538.757
-0.715,-0.279,0.795,199.524,-76.294,489.441
-0.749,-0.433,0.95,152.344,-28.748,425.72
-0.753,-0.419,0.992,94.238,12.634,350.525
-0.825,-0.242,0.778,32.104,43.884,276.855
-0.924,-0.096,0.425,-39.551,78.247,213.074
-0.934,-0.029,0.06,-109.436,126.465,148.01
-0.796,0.022,-0.23,-158.325,189.453,80.994
-0.577,0.139,-0.463,-184.021,258.423,12.817
-0.349,0.339,-0.702,-191.956,326.599,-41.931
-0.072,0.613,-0.95,-181.519,395.447,-74.646
0.275,0.859,-1.053,-143.066,464.05,-81.421
0.55,0.983,-1.019,-80.017,515.686,-63.477
0.793,1.017,-1.083,-11.292,535.889,-30.64
1.029,0.882,-1.325,51.514,524.475,13.794
1.144,0.432,-1.793,108.032,492.004,56.519
1.365,-0.061,-2.146,160.034,452.637,60.242
1.864,0.003,-2.148,193.97,391.968,46.082
2.144,-0.073,-2.119,195.312,307.617,81.116
1.742,-0.428,-2.174,169.25,231.934,92.041
1.417,-0.91,-2.724,158.63,215.637,58.899
1.693,-0.897,-2.473,111.755,253.296,31.006
1.898,-0.758,-1.963,5.798,259.338,-18.188
1.854,-0.648,-1.536,-51.331,220.825,-52.979
1.829,-0.473,-1.288,-67.993,139.404,-60.791
1.732,-0.379,-1.217,-62.683,44.8,-53.589
1.504,-0.433,-1.201,-46.509,-33.691,-44.8
1.356,-0.318,-1.228,-28.381,-88.074,-30.579
1.187,-0.509,-1.187,-20.996,-115.54,-1.587
0.995,-0.639,-1.031,-19.714,-122.986,2.686
0.975,-0.735,-0.879,-5.676,-125.549,8.057
0.962,-0.687,-0.791,2.38,-126.648,3.967
0.84,-0.746,-0.875,3.906,-122.375,-2.136
0.609,-0.6,-0.933,1.526,-98.328,-12.085
0.581,-0.659,-0.963,-2.686,-56.946,-9.827
0.445,-0.682,-0.866,-10.254,-4.456,-26.978
0.563,-0.577,-0.695,-6.47,45.105,-42.664
0.761,-0.443,-0.484,-8.057,79.956,-40.283
0.801,-0.415,-0.219,-18.86,94.177,-36.865
0.917,-0.409,-0.005,-23.132,79.773,-34.973
0.971,-0.316,-0.012,-22.522,40.405,-25.085
0.85,-0.307,-0.142,-26.55,-2.197,-10.498
0.716,-0.314,-0.333,-29.48,-33.02,-2.93
0.673,-0.284,-0.497,-22.888,-45.349,2.075
0.632,-0.256,-0.602,-14.099,-41.931,7.69
0.592,-0.256,-0.66,-5.859,-30.518,9.216
0.605,-0.259,-0.683,3.418,-14.038,7.324
0.621,-0.255,-0.669,10.986,4.883,6.714
0.642,-0.271,-0.617,12.512,22.278,5.615
0.69,-0.296,-0.553,9.46,32.104,2.502
0.735,-0.311,-0.504,5.188,31.982,-1.77
0.748,-0.304,-0.491,0.549,22.888,-7.08
0.743,-0.295,-0.544,-3.357,8.545,-12.695
0.73,-0.273,-0.626,-7.629,-4.333,-16.602
0.717,-0.24,-0.687,-11.414,-11.292,-17.761
0.712,-0.22,-0.711,-13.367,-12.939,-15.686
0.712,-0.227,-0.705,-13.428,-11.902,-12.085
0.708,-0.251,-0.681,-11.292,-11.475,-9.583
0.7,-0.291,-0.658,-8.24,-12.634,-8.667
0.69,-0.32,-0.646,-5.371,-14.221,-9.583
0.678,-0.324,-0.634,-3.479,-14.709,-12.146
0.685,-0.325,-0.613,-2.625,-13.855,-13.306
0.717,-0.306,-0.581,-3.845,-13.123,-12.451
0.702,-0.308,-0.581,-4.333,-14.832,-9.521
0.715,-0.311,-0.595,-2.93,-17.456,-7.996
0.668,-0.333,-0.62,-0.122,-18.127,-6.592
0.687,-0.308,-0.588,1.282,-14.893,-4.456
0.733,-0.306,-0.581,2.38,-12.512,-0.671
0.739,-0.292,-0.572,3.418,-11.23,2.808
0.714,-0.314,-0.58,2.808,-10.62,9.827
0.7,-0.346,-0.61,1.892,-9.399,13.0
0.689,-0.379,-0.634,1.892,-5.859,13.733
0.672,-0.392,-0.637,0.427,1.099,11.292
0.68,-0.394,-0.626,-2.258,9.338,7.385
0.69,-0.385,-0.605,-5.066,16.907,2.441
0.708,-0.358,-0.57,-6.531,22.339,-2.319
0.733,-0.331,-0.531,-7.141,23.865,-4.944
0.757,-0.315,-0.503,-7.385,20.63,-5.676
0.773,-0.314,-0.5,-8.057,13.0,-5.005
0.777,-0.316,-0.518,-8.484,2.747,-2.747
0.765,-0.315,-0.552,-8.057,-7.69,0.244
0.745,-0.321,-0.593,-6.409,-15.564,2.93
0.724,-0.33,-0.631,-3.54,-19.165,3.601
0.713,-0.333,-0.655,-0.488,-17.944,3.357
-1.304,-0.875,0.655,-3.723,-75.073,11.597
-1.434,-0.969,0.69,3.784,-98.022,20.569
-1.56,-1.031,0.771,7.69,-117.188,32.959
-1.675,-1.05,0.864,7.385,-136.719,43.64
-1.74,-1.075,0.92,11.292,-159.973,52.185
-1.759,-1.123,0.915,15.869,-183.35,60.364
-1.778,-1.161,0.888,12.39,-203.064,71.655
-1.812,-1.21,0.879,4.517,-217.834,88.257
-1.84,-1.21,0.812,-4.272,-227.051,104.248
-1.799,-1.172,0.763,-18.555,-225.769,120.728
-1.689,-1.135,0.721,-39.795,-212.646,144.531
-1.583,-1.055,0.648,-60.303,-189.209,178.04
-1.52,-0.912,0.542,-79.468,-156.555,216.003
-1.447,-0.732,0.374,-97.046,-116.089,263.184
-1.41,-0.569,0.25,-115.662,-63.477,321.045
-1.323,-0.448,0.135,-132.629,-9.46,372.681
-1.182,-0.344,-0.005,-136.414,37.537,410.095
-1.06,-0.203,-0.105,-134.216,82.458,439.026
-0.935,-0.024,-0.152,-130.676,125.061,465.515
-0.777,0.154,-0.147,-119.385,161.194,490.601
-0.609,0.287,-0.1,-96.619,189.026,510.681
-0.438,0.372,-0.01,-65.43,205.933,527.771
-0.262,0.46,0.151,-31.433,209.717,544.617
-0.074,0.557,0.412,4.944,196.167,562.622
0.187,0.626,0.74,40.222,161.804,584.778
0.531,0.58,1.152,73.547,95.215,610.657
0.508,0.472,0.89,99.609,-14.038,635.681
0.282,0.426,0.59,117.493,-105.469,654.907
0.021,0.31,0.578,150.085,-149.78,660.217
-0.154,0.273,0.54,184.387,-185.181,652.161
-0.254,0.26,0.51,200.012,-202.454,640.991
-0.457,0.218,0.598,204.712,-195.007,620.728
-0.583,0.119,0.674,207.703,-174.866,584.778
-0.644,0.034,0.717,190.857,-140.137,539.551
-0.756,-0.097,0.763,163.391,-90.576,491.455
-0.874,-0.208,0.766,122.131,-32.043,436.401
-0.934,-0.291,0.701,68.237,29.297,373.596
-0.933,-0.305,0.581,7.385,89.966,303.528
-0.913,-0.254,0.403,-53.284,140.32,228.882
-0.864,-0.129,0.136,-115.295,178.528,153.625
-0.728,0.0,-0.162,-169.8,212.402,81.97
-0.551,0.083,-0.429,-206.848,250.427,15.747
-0.34,0.193,-0.667,-224.854,295.593,-43.701
-0.1,0.34,-0.843,-218.384,346.252,-91.797
0.169,0.532,-0.955,-185.669,396.729,-123.108
0.453,0.738,-1.033,-128.845,439.697,-132.629
0.766,0.922,-1.162,-60.059,472.29,-111.938
0.992,1.024,-1.331,3.418,493.408,-58.167
1.177,0.929,-1.528,56.885,496.643,12.329
1.416,0.567,-1.772,108.215,476.562,77.881
1.676,0.024,-1.996,158.813,435.547,122.742
1.696,-0.462,-2.173,196.472,383.85,139.099
1.734,-0.713,-2.282,212.646,341.187,129.272
1.389,-0.684,-2.37,204.834,325.134,109.68
1.399,-0.539,-2.48,164.734,334.595,86.975
1.845,-0.442,-2.23,92.529,336.365,50.354
1.927,-0.598,-1.745,12.146,300.903,11.597
1.802,-0.715,-1.463,-47.729,225.403,-25.269
1.562,-0.936,-1.333,-70.679,137.756,-63.599
1.396,-0.655,-1.124,-77.332,56.763,-105.103
1.402,-0.542,-1.084,-61.707,-23.071,-113.831
1.323,-0.354,-1.16,-49.5,-84.656,-116.638
1.21,-0.163,-1.181,-32.043,-116.882,-98.083
1.072,-0.168,-1.155,-28.198,-127.258,-54.504
0.959,-0.33,-1.089,-28.442,-122.681,-22.217
0.864,-0.538,-1.008,-13.916,-109.802,0.427
0.792,-0.633,-0.867,-0.61,-91.248,7.874
0.775,-0.668,-0.739,9.277,-75.134,4.822
0.78,-0.666,-0.659,13.489,-63.599,-2.136
0.756,-0.639,-0.599,10.071,-52.49,-9.705
0.698,-0.615,-0.559,2.686,-40.039,-13.245
0.685,-0.613,-0.535,-6.348,-25.513,-15.93
0.699,-0.576,-0.477,-13.916,-7.874,-20.142
0.729,-0.494,-0.382,-19.165,6.897,-20.447
0.778,-0.387,-0.296,-20.935,11.597,-16.846
0.8,-0.301,-0.271,-18.127,4.578,-9.888
0.789,-0.29,-0.297,-12.085,-7.996,0.427
0.75,-0.353,-0.352,-5.676,-19.897,9.155
0.687,-0.38,-0.447,0.549,-28.259,12.695
0.715,-0.339,-0.506,4.028,-30.884,14.343
0.711,-0.318,-0.547,3.845,-31.433,15.625
0.667,-0.348,-0.601,1.221,-31.372,13.306
0.651,-0.365,-0.629,0.732,-26.611,5.066
0.685,-0.307,-0.602,0.549,-18.494,-2.563
0.726,-0.258,-0.58,-1.404,-12.39,-8.423
0.729,-0.208,-0.578,-4.822,-8.789,-11.108
0.719,-0.217,-0.594,-6.348,-6.287,-9.094
0.712,-0.258,-0.605,-8.362,-4.272,-7.08
0.712,-0.286,-0.607,-8.057,-2.319,-7.385
0.704,-0.291,-0.609,-5.615,-0.732,-8.301
0.698,-0.283,-0.606,-3.174,1.221,-9.583
0.698,-0.272,-0.598,-1.648,3.601,-9.766
0.705,-0.266,-0.569,-1.77,6.226,-7.69
0.718,-0.277,-0.529,-2.563,6.348,-5.371
0.727,-0.305,-0.504,-2.808,1.709,-3.784
0.721,-0.332,-0.496,-3.357,-5.188,-3.479
0.704,-0.348,-0.507,-4.028,-12.024,-4.395
0.688,-0.35,-0.526,-5.371,-16.174,-5.92
0.685,-0.336,-0.543,-7.751,-16.479,-7.202
0.688,-0.314,-0.555,-9.521,-13.916,-7.202
0.7,-0.292,-0.561,-9.888,-11.047,-6.104
0.716,-0.283,-0.568,-7.69,-8.728,-4.7
0.727,-0.274,-0.577,-4.211,-6.714,-2.502
0.722,-0.284,-0.583,-0.854,-5.127,0.854
0.722,-0.308,-0.596,2.258,-3.967,2.441
0.724,-0.318,-0.608,6.042,-1.892,3.235
0.726,-0.32,-0.61,8.484,1.77,3.967
0.73,-0.325,-0.604,9.094,5.371,4.211
0.741,-0.334,-0.591,8.667,8.057,4.028
0.747,-0.344,-0.574,7.385,9.399,3.174
0.75,-0.357,-0.549,4.822,9.338,1.038
0.753,-0.371,-0.528,1.404,7.751,-1.648
0.751,-0.377,-0.516,-2.197,5.31,-4.944
0.75,-0.372,-0.514,-5.432,2.38,-8.24
0.748,-0.357,-0.526,-8.362,-0.366,-10.864
0.749,-0.339,-0.548,-9.888,-2.441,-12.085
0.752,-0.32,-0.574,-9.888,-2.625,-11.292
0.759,-0.299,-0.595,-7.629,-1.343,-8.545
0.762,-0.289,-0.607,-3.784,0.732,-5.005
-1.214,-0.867,0.758,10.071,-94.055,34.119
-1.376,-1.068,0.817,16.357,-121.155,48.401
-1.512,-1.193,0.891,13.245,-143.005,56.58
-1.584,-1.214,0.98,5.676,-164.978,57.434
-1.625,-1.181,1.047,2.625,-189.27,51.453
-1.671,-1.127,1.066,0.0,-216.431,43.579
-1.728,-1.046,1.023,-3.845,-241.516,40.039
-1.785,-0.969,0.94,-7.446,-257.996,44.922
-1.812,-0.924,0.912,-12.39,-262.573,62.805
-1.808,-0.946,0.893,-21.667,-258.484,93.445
-1.792,-0.912,0.808,-39.917,-245.789,131.165
-1.709,-0.875,0.742,-57.312,-218.201,174.988
-1.597,-0.803,0.621,-70.862,-180.359,219.666
-1.507,-0.7,0.417,-83.13,-134.827,267.639
-1.474,-0.583,0.266,-98.755,-79.163,321.411
-1.377,-0.495,0.125,-114.563,-19.653,369.019
-1.211,-0.373,-0.041,-124.451,37.659,404.419
-1.071,-0.212,-0.162,-127.502,94.421,432.007
-0.905,-0.029,-0.227,-123.047,148.071,457.153
-0.708,0.153,-0.233,-109.985,196.777,479.309
-0.511,0.318,-0.179,-88.745,235.84,497.192
-0.322,0.464,-0.075,-58.472,261.353,513.855
-0.129,0.617,0.11,-19.165,270.203,531.433
0.1,0.77,0.421,23.437,256.775,552.246
0.397,0.865,0.888,61.401,216.187,580.75
0.837,0.792,1.486,95.52,128.845,614.319
0.65,0.693,0.883,119.873,-15.442,644.226
0.373,0.493,0.591,134.888,-104.37,665.161
0.127,0.282,0.556,165.344,-139.526,666.565
-0.041,0.234,0.444,196.228,-170.654,651.001
-0.146,0.206,0.436,208.618,-177.979,630.554
-0.366,0.158,0.565,213.684,-165.039,601.257
-0.479,0.078,0.641,218.75,-148.315,561.584
-0.559,0.009,0.709,200.867,-119.141,517.273
-0.666,-0.067,0.778,171.631,-74.707,469.91
-0.762,-0.129,0.811,135.071,-21.79,417.053
-0.8,-0.186,0.772,87.463,35.095,355.835
-0.765,-0.207,0.682,31.982,91.248,287.537
-0.708,-0.176,0.537,-23.804,137.573,214.905
-0.607,-0.066,0.273,-77.271,171.021,140.686
-0.472,0.041,-0.025,-119.812,201.05,74.402
-0.308,0.13,-0.288,-154.114,236.389,19.592
-0.102,0.197,-0.539,-174.805,277.039,-26.062
0.155,0.283,-0.744,-175.354,322.571,-62.256
0.443,0.424,-0.905,-150.024,366.882,-85.022
0.655,0.547,-0.964,-104.126,404.114,-88.501
0.838,0.633,-1.045,-53.223,429.321,-70.313
0.963,0.669,-1.146,-3.967,444.824,-29.297
1.047,0.548,-1.218,45.105,454.285,23.193
1.177,0.266,-1.323,87.585,453.796,72.815
1.317,-0.025,-1.465,117.432,431.641,105.53
1.378,-0.345,-1.655,144.348,386.963,115.112
1.475,-0.531,-1.72,157.104,332.642,98.45
1.414,-0.553,-1.677,151.306,281.006,72.144
1.437,-0.44,-1.65,131.47,244.629,47.974
1.566,-0.486,-1.687,96.069,228.516,27.832
1.48,-0.493,-1.49,41.138,222.351,7.263
1.621,-0.637,-1.225,-14.16,194.58,-3.784
1.611,-0.649,-1.242,-41.26,132.202,-12.695
1.375,-0.727,-1.371,-37.476,69.641,-24.597
1.246,-0.468,-1.34,-17.944,25.94,-52.551
1.288,-0.348,-1.402,9.338,-7.507,-51.575
1.288,-0.288,-1.434,16.907,-24.536,-43.762
1.167,-0.275,-1.394,18.616,-24.17,-26.855
1.025,-0.351,-1.393,13.55,-15.015,3.784
1.015,-0.457,-1.277,8.118,2.808,25.391
1.007,-0.614,-1.079,7.324,20.935,37.72
0.965,-0.74,-0.861,6.104,30.701,35.339
0.935,-0.808,-0.686,9.705,28.137,21.484
0.904,-0.75,-0.602,12.878,16.235,1.648
0.898,-0.633,-0.563,11.475,1.221,-14.648
0.882,-0.51,-0.533,5.859,-11.23,-24.109
0.853,-0.398,-0.509,-1.587,-22.583,-24.231
0.854,-0.343,-0.486,-8.728,-32.288,-14.954
0.833,-0.331,-0.459,-13.428,-41.87,-5.188
0.817,-0.356,-0.453,-12.146,-52.673,2.38
0.77,-0.347,-0.482,-6.531,-64.392,4.639
0.748,-0.366,-0.522,0.488,-72.205,3.479
0.684,-0.349,-0.556,4.211,-72.205,0.061
0.692,-0.339,-0.566,6.042,-66.04,-3.357
0.69,-0.319,-0.564,5.615,-57.495,-6.714
0.643,-0.363,-0.589,3.418,-48.645,-10.803
0.64,-0.356,-0.605,0.427,-38.025,-19.043
0.655,-0.303,-0.603,-2.441,-25.696,-25.146
0.661,-0.257,-0.615,-8.789,-13.55,-27.893
0.68,-0.216,-0.609,-15.686,-3.357,-29.297
0.71,-0.199,-0.584,-18.982,3.113,-27.039
0.712,-0.2,-0.556,-19.836,4.578,-23.682
0.712,-0.197,-0.548,-15.991,2.075,-22.827
0.718,-0.18,-0.558,-9.46,-0.793,-20.996
0.723,-0.18,-0.569,-5.31,-1.831,-17.334
0.729,-0.193,-0.569,-3.418,-3.296,-12.817
0.727,-0.225,-0.566,-2.38,-5.31,-8.24
0.712,-0.251,-0.568,-0.305,-7.935,-6.104
0.707,-0.271,-0.569,2.502,-10.376,-6.653
0.701,-0.284,-0.563,3.662,-12.085,-7.751
0.695,-0.299,-0.556,1.648,-12.268,-8.484
0.687,-0.319,-0.557,-0.671,-11.23,-10.01
0.681,-0.324,-0.564,-3.235,-8.545,-12.329
0.68,-0.305,-0.566,-4.761,-4.333,-14.832
0.683,-0.279,-0.559,-4.944,0.671,-15.808
0.699,-0.254,-0.542,-5.127,5.859,-14.954
0.717,-0.245,-0.516,-3.967,8.911,-11.841
0.733,-0.256,-0.504,-2.075,8.423,-7.324
0.74,-0.275,-0.504,0.183,5.249,-3.662
0.76,-0.274,-0.508,2.747,0.916,0.305
0.76,-0.276,-0.518,4.639,-4.395,4.944
0.741,-0.29,-0.552,6.714,-9.094,7.812
0.725,-0.312,-0.59,9.033,-10.864,9.033
0.725,-0.312,-0.613,8.911,-9.277,8.911
0.721,-0.319,-0.617,6.836,-5.005,8.057
0.71,-0.341,-0.601,3.845,0.854,5.92
0.726,-0.359,-0.578,0.671,6.592,2.441
0.744,-0.355,-0.556,-2.319,10.437,-1.587
0.76,-0.33,-0.548,-4.395,11.23,-4.883
0.773,-0.302,-0.552,-4.395,10.01,-6.165
0.783,-0.282,-0.559,-3.052,8.179,-5.432
0.797,-0.269,-0.562,-1.587,5.859,-2.808
0.8,-0.272,-0.566,1.221,3.479,0.549
-1.183,-0.901,0.772,18.555,-67.322,42.786
-1.342,-1.104,0.832,26.062,-92.346,59.814
-1.449,-1.302,0.902,25.391,-119.69,72.876
-1.479,-1.449,0.935,20.142,-152.405,80.078
-1.479,-1.491,0.933,12.146,-189.636,80.688
-1.505,-1.397,0.931,2.686,-222.534,75.256
-1.524,-1.282,0.896,-5.737,-245.422,69.641
-1.519,-1.237,0.884,-15.625,-256.897,69.58
-1.527,-1.193,0.831,-28.809,-255.798,74.89
-1.504,-1.14,0.79,-42.48,-242.737,84.29
-1.46,-1.112,0.755,-57.861,-223.267,100.22
-1.41,-1.093,0.698,-77.087,-201.355,127.136
-1.359,-1.047,0.616,-96.008,-177.246,163.574
-1.277,-0.903,0.476,-110.046,-149.17,206.177
-1.238,-0.72,0.329,-116.577,-113.953,254.761
-1.228,-0.585,0.219,-123.047,-69.519,306.702
-1.155,-0.509,0.099,-127.93,-22.461,349.915
-1.047,-0.425,-0.012,-126.648,24.78,381.287
-0.943,-0.291,-0.078,-123.108,73.975,404.785
-0.828,-0.118,-0.106,-116.211,119.934,425.11
-0.708,0.048,-0.082,-102.356,160.278,439.209
-0.557,0.167,-0.023,-81.482,193.604,447.51
-0.372,0.247,0.072,-57.007,218.75,456.36
-0.17,0.325,0.238,-29.846,233.215,467.224
0.083,0.456,0.495,-0.427,230.347,481.567
0.378,0.568,0.889,33.875,198.669,500.183
0.664,0.566,1.136,68.787,118.591,525.024
0.493,0.486,0.664,86.731,5.92,552.002
0.327,0.358,0.46,101.807,-58.777,571.96
0.197,0.221,0.381,138.062,-94.849,573.792
0.134,0.19,0.294,172.119,-125.061,563.965
0.099,0.195,0.28,188.354,-139.404,554.321
-0.068,0.15,0.377,201.416,-142.822,538.391
-0.137,0.031,0.46,210.876,-144.165,512.878
-0.247,-0.093,0.514,198.975,-134.338,481.934
-0.397,-0.175,0.577,171.997,-109.07,446.472
-0.514,-0.227,0.652,139.648,-72.632,404.846
-0.57,-0.246,0.721,105.53,-29.48,352.661
-0.583,-0.184,0.739,70.984,13.977,293.884
-0.576,-0.071,0.647,34.485,55.42,238.342
-0.547,0.035,0.475,-5.249,97.473,190.247
-0.503,0.106,0.28,-47.974,144.165,146.057
-0.405,0.141,0.08,-87.158,198.73,103.516
-0.218,0.187,-0.093,-115.906,254.944,62.073
-0.023,0.272,-0.216,-129.15,308.228,24.841
0.173,0.409,-0.326,-128.418,352.112,-2.502
0.335,0.543,-0.415,-113.342,386.719,-15.137
0.479,0.623,-0.453,-85.938,414.917,-12.085
0.577,0.645,-0.485,-48.279,431.396,2.38
0.639,0.597,-0.559,-4.944,433.655,25.208
0.693,0.465,-0.682,36.804,425.842,51.453
0.673,0.283,-0.895,74.89,413.269,73.975
0.769,0.149,-1.232,105.53,400.94,90.881
0.931,0.037,-1.471,126.221,381.226,103.516
1.136,-0.222,-1.875,141.479,325.317,104.37
1.373,-0.225,-2.328,151.489,245.422,78.735
1.547,-0.275,-2.453,159.058,184.326,57.8
1.127,-0.445,-2.761,147.522,174.438,39.551
1.317,-0.569,-2.557,109.924,258.423,10.742
1.588,-0.578,-1.75,11.841,320.801,-29.114
1.76,-0.735,-1.263,-53.65,311.157,-60.974
1.611,-0.896,-1.161,-71.045,243.774,-89.294
1.473,-0.579,-1.05,-59.387,158.63,-121.826
1.494,-0.339,-1.036,-27.466,66.223,-125.122
1.363,-0.061,-1.064,-11.536,-18.188,-115.845
1.379,0.042,-0.986,-0.488,-82.031,-87.891
1.403,-0.101,-1.06,1.16,-132.446,-35.034
1.121,-0.418,-1.187,-4.578,-158.936,3.418
0.78,-0.746,-1.286,2.625,-156.921,22.095
0.694,-0.977,-1.32,15.869,-131.042,18.86
0.691,-1.023,-1.25,25.635,-88.562,-6.287
0.64,-0.929,-1.126,28.809,-39.246,-33.691
0.634,-0.798,-0.995,22.034,8.179,-52.246
0.702,-0.685,-0.825,13.0,51.27,-62.073
0.765,-0.607,-0.6,4.456,83.984,-62.195
0.829,-0.583,-0.361,-2.808,97.229,-54.626
0.911,-0.584,-0.129,-6.104,85.876,-46.57
0.965,-0.536,0.016,-7.202,48.462,-39.49
0.974,-0.464,0.006,-10.071,-6.042,-28.931
0.913,-0.422,-0.118,-12.451,-61.584,-15.564
0.836,-0.418,-0.303,-11.108,-103.821,-2.502
0.719,-0.429,-0.51,-5.371,-125.549,7.935
0.62,-0.44,-0.679,2.319,-123.413,13.977
0.564,-0.424,-0.773,7.874,-102.417,15.442
0.56,-0.408,-0.806,9.155,-71.289,15.32
0.556,-0.404,-0.802,6.775,-38.33,14.465
0.6,-0.393,-0.748,3.418,-8.24,11.23
0.671,-0.36,-0.657,0.732,13.977,7.996
0.723,-0.35,-0.584,-3.052,25.208,5.981
0.737,-0.345,-0.524,-6.714,25.269,2.136
0.771,-0.313,-0.485,-7.874,16.418,-0.488
0.771,-0.313,-0.516,-9.766,1.892,-0.61
0.731,-0.306,-0.559,-12.085,-10.132,-0.793
0.698,-0.297,-0.606,-12.573,-17.395,-0.122
0.68,-0.282,-0.649,-12.878,-18.738,-0.122
0.666,-0.26,-0.676,-11.169,-15.198,-0.732
0.667,-0.248,-0.683,-8.057,-9.094,0.488
0.68,-0.248,-0.669,-5.554,-2.319,2.686
0.688,-0.27,-0.644,-3.235,3.601,5.188
0.691,-0.301,-0.614,-1.953,7.385,5.859
0.703,-0.314,-0.592,-1.953,8.362,4.761
0.711,-0.313,-0.576,-2.014,5.981,3.296
0.716,-0.309,-0.569,-1.831,2.075,1.831
0.72,-0.303,-0.568,-3.174,-1.648,1.099
0.713,-0.299,-0.57,-4.578,-4.333,0.488
0.698,-0.298,-0.577,-4.761,-6.653,-1.343
0.708,-0.3,-0.582,-5.127,-7.751,-2.93
0.713,-0.294,-0.58,-6.104,-7.935,-3.479
0.689,-0.303,-0.575,-7.324,-7.507,-3.296
0.691,-0.329,-0.58,-7.812,-6.165,-4.578
0.695,-0.33,-0.583,-8.118,-3.54,-6.287
0.7,-0.309,-0.567,-8.85,0.488,-7.751
0.711,-0.306,-0.545,-9.888,3.418,-7.324
0.723,-0.319,-0.539,-10.437,3.967,-6.531
0.731,-0.324,-0.547,-9.399,2.869,-6.287
0.74,-0.316,-0.557,-8.24,0.549,-5.493
0.74,-0.312,-0.569,-6.592,-2.502,-4.639
0.744,-0.312,-0.591,-3.906,-4.761,-4.089
0.743,-0.312,-0.609,-0.183,-5.432,-3.296
-0.936,-1.016,0.945,-74.28,-210.876,-38.574
-1.107,-1.002,0.961,-78.552,-262.268,-21.851
-1.263,-0.976,0.952,-74.036,-307.251,-2.136
-1.372,-0.955,0.923,-65.613,-345.764,16.479
-1.481,-0.933,0.86,-55.054,-373.108,32.532
-1.589,-0.901,0.81,-40.466,-382.507,49.622
-1.667,-0.854,0.84,-26.184,-371.582,69.885
-1.713,-0.809,0.983,-18.738,-341.919,89.111
-1.678,-0.836,1.103,-20.203,-305.359,110.229
-1.573,-0.927,1.184,-32.227,-266.602,135.803
-1.493,-0.947,1.15,-56.58,-230.469,166.138
-1.423,-0.905,0.999,-85.083,-201.172,209.473
-1.381,-0.846,0.792,-110.962,-172.424,262.695
-1.362,-0.763,0.528,-131.409,-144.348,314.941
-1.328,-0.691,0.267,-140.381,-113.647,358.643
-1.267,-0.592,0.032,-139.709,-75.378,384.583
-1.181,-0.487,-0.159,-136.597,-26.611,394.043
-1.081,-0.405,-0.27,-137.146,32.471,395.813
-0.942,-0.33,-0.332,-133.911,97.656,391.296
-0.802,-0.247,-0.345,-128.174,162.354,379.028
-0.662,-0.129,-0.317,-125.61,222.534,366.943
-0.499,-0.0,-0.238,-113.953,274.353,361.145
-0.356,0.134,-0.105,-92.957,315.186,357.605
-0.207,0.289,0.063,-67.078,339.417,357.483
-0.036,0.439,0.259,-37.72,343.201,365.845
0.162,0.58,0.509,-7.263,322.876,379.883
0.381,0.667,0.814,21.301,273.926,402.466
0.588,0.617,1.057,48.828,191.589,429.932
0.462,0.445,0.739,74.829,85.754,454.59
0.231,0.262,0.552,92.163,18.005,469.177
0.087,0.148,0.489,113.342,-10.742,469.727
-0.026,0.176,0.382,134.949,-27.588,456.97
-0.077,0.174,0.296,145.874,-31.128,439.514
-0.097,0.137,0.296,138.977,-20.508,418.457
-0.143,0.089,0.315,129.089,-5.859,397.4
-0.209,0.054,0.305,116.821,10.559,378.723
-0.295,0.042,0.319,99.487,33.875,357.178
-0.342,0.037,0.391,83.13,61.707,328.979
-0.332,0.062,0.524,70.496,87.28,292.603
-0.295,0.137,0.619,59.814,107.117,251.892
-0.276,0.23,0.625,48.523,123.718,214.294
-0.271,0.265,0.562,33.752,143.921,183.899
-0.267,0.241,0.472,15.137,170.471,160.095
-0.24,0.187,0.38,-2.075,200.806,138.428
-0.182,0.183,0.294,-14.526,231.567,117.31
-0.135,0.264,0.188,-20.935,260.132,98.145
-0.083,0.379,0.064,-21.79,286.926,85.205
-0.025,0.455,-0.06,-17.334,313.171,79.956
-0.008,0.47,-0.17,-6.897,335.876,80.139
0.035,0.458,-0.312,9.155,355.53,83.557
0.101,0.426,-0.48,29.236,375.732,87.585
0.134,0.387,-0.658,47.058,395.325,91.858
0.201,0.276,-0.879,60.364,413.147,96.802
0.284,0.115,-1.106,65.918,429.81,97.412
0.489,-0.012,-1.408,65.186,428.101,88.44
0.774,-0.097,-1.789,66.772,398.376,75.439
1.101,-0.224,-2.175,80.139,346.436,57.129
1.519,-0.314,-2.517,98.083,280.945,35.4
1.299,-0.346,-3.187,116.15,232.239,11.23
1.188,-0.645,-3.938,128.418,300.842,-4.15
1.618,-0.72,-3.101,52.795,410.095,-28.137
2.224,-0.927,-2.177,-18.005,448.181,-76.172
2.26,-0.703,-1.513,-33.081,405.884,-118.958
2.048,-0.539,-1.226,-31.982,295.593,-116.455
1.92,-0.389,-1.304,-41.626,154.846,-88.684
1.66,-0.409,-1.411,-38.025,29.053,-63.293
1.48,-0.512,-1.503,-22.949,-63.721,-40.588
1.343,-0.65,-1.563,-10.925,-125.122,-25.513
1.223,-0.695,-1.466,-1.648,-153.992,-22.949
1.246,-0.736,-1.344,3.662,-162.842,-20.691
1.1,-0.855,-1.367,0.305,-157.471,-26.428
0.755,-0.711,-1.316,-7.019,-130.066,-38.33
0.744,-0.671,-1.222,-14.648,-88.318,-31.25
0.723,-0.735,-1.045,-26.978,-40.894,-31.616
0.613,-0.861,-0.832,-28.687,0.488,-44.983
0.663,-0.831,-0.636,-22.705,26.611,-59.998
0.791,-0.669,-0.461,-19.958,35.522,-67.932
0.812,-0.646,-0.293,-25.146,28.442,-65.125
0.804,-0.448,-0.345,-30.945,7.935,-63.843
0.795,-0.235,-0.375,-27.893,-9.766,-38.879
0.668,-0.248,-0.318,-34.729,-21.362,0.793
0.629,-0.436,-0.311,-30.823,-39.185,14.587
0.734,-0.416,-0.414,-9.277,-58.655,16.907
0.615,-0.415,-0.488,0.793,-64.697,30.273
0.434,-0.473,-0.591,-2.991,-59.143,30.518
0.53,-0.395,-0.66,1.892,-43.762,21.851
0.559,-0.325,-0.591,3.235,-19.104,27.161
0.532,-0.378,-0.511,-3.54,-2.014,28.015
0.62,-0.39,-0.469,-0.977,-0.61,18.127
0.643,-0.335,-0.506,2.502,-6.165,15.808
0.594,-0.348,-0.542,-2.686,-11.719,15.015
0.605,-0.338,-0.551,-6.836,-17.578,7.263
0.669,-0.301,-0.567,-10.498,-24.231,6.714
0.672,-0.265,-0.569,-17.334,-30.884,7.751
0.642,-0.326,-0.593,-20.874,-39.063,7.019
0.636,-0.353,-0.62,-19.958,-46.875,-0.549
0.657,-0.29,-0.652,-17.517,-51.941,-4.761
0.638,-0.256,-0.653,-17.09,-52.49,-5.066
0.616,-0.299,-0.677,-17.09,-51.575,-6.836
0.622,-0.226,-0.71,-11.108,-48.828,-9.644
0.635,-0.287,-0.706,-7.019,-41.687,-0.305
0.611,-0.291,-0.676,-6.897,-33.02,-3.479
0.638,-0.283,-0.693,-1.404,-26.733,-2.075
0.631,-0.299,-0.683,-2.075,-17.639,1.648
0.604,-0.339,-0.666,-3.418,-7.874,1.221
0.621,-0.359,-0.66,-2.563,1.099,-0.793
0.641,-0.35,-0.62,-2.93,10.803,-2.502
0.646,-0.362,-0.572,-5.066,18.005,-4.272
0.687,-0.393,-0.553,-6.775,20.081,-8.423
0.666,-0.331,-0.556,-6.47,18.616,-13.611
0.677,-0.303,-0.549,-6.653,18.188,-11.902
0.665,-0.312,-0.527,-8.911,18.555,-10.681
0.678,-0.324,-0.503,-7.385,16.602,-10.742
0.702,-0.34,-0.517,-6.47,12.024,-6.775
0.694,-0.352,-0.533,-7.324,6.958,-5.188
0.7,-0.356,-0.548,-6.653,1.404,-3.479
0.721,-0.343,-0.577,-4.822,-3.174,-2.319
0.735,-0.362,-0.605,-3.845,-5.493,-0.244
0.734,-0.388,-0.608,-4.517,-5.371,0.61
-1.464,-1.125,0.718,46.936,-111.389,71.838
-1.668,-1.268,0.796,45.044,-135.071,92.285
-1.811,-1.391,0.906,39.49,-158.691,102.966
-1.904,-1.482,0.995,37.048,-187.439,102.173
-1.953,-1.529,1.047,29.053,-217.712,95.276
-1.954,-1.558,1.019,15.625,-245.117,91.98
-1.953,-1.561,0.959,-2.38,-265.991,95.947
-1.949,-1.462,0.881,-24.841,-273.376,108.704
-1.877,-1.377,0.876,-49.316,-266.968,135.254
-1.761,-1.273,0.836,-72.021,-250.916,172.363
-1.659,-1.16,0.729,-93.14,-224.915,211.487
-1.522,-0.971,0.485,-113.098,-190.857,258.667
-1.501,-0.806,0.274,-133.362,-142.334,322.327
-1.512,-0.702,0.135,-162.72,-82.092,388.611
-1.402,-0.652,-0.074,-187.134,-27.71,434.937
-1.276,-0.532,-0.273,-197.693,23.682,461.243
-1.159,-0.3,-0.419,-198.73,79.59,477.173
-1.022,-0.028,-0.472,-194.702,136.963,489.014
-0.858,0.203,-0.458,-183.716,189.636,497.803
-0.684,0.347,-0.392,-160.217,234.314,506.104
-0.531,0.456,-0.253,-126.648,269.958,512.39
-0.366,0.568,-0.059,-85.327,293.762,519.592
-0.175,0.712,0.23,-37.17,299.622,531.25
0.113,0.875,0.636,13.062,279.236,546.204
0.657,0.954,1.536,62.622,217.285,563.843
0.916,0.746,1.342,108.398,69.702,582.397
0.545,0.561,0.612,122.559,-87.036,588.806
0.264,0.304,0.484,131.531,-137.39,590.149
0.048,0.232,0.319,159.546,-168.335,580.75
-0.036,0.196,0.246,182.373,-181.946,556.702
-0.108,0.097,0.332,189.575,-171.082,511.536
-0.209,0.043,0.429,187.5,-149.902,454.468
-0.278,-0.018,0.48,168.64,-119.568,404.419
-0.385,-0.098,0.531,130.188,-75.623,356.506
-0.488,-0.175,0.522,84.29,-24.17,301.636
-0.494,-0.22,0.513,33.936,31.311,242.554
-0.418,-0.209,0.569,-15.503,84.473,178.345
-0.316,-0.101,0.533,-57.739,118.286,109.924
-0.257,0.115,0.331,-97.595,135.315,50.232
-0.224,0.309,0.112,-131.836,157.043,11.597
-0.152,0.425,0.002,-151.855,190.857,-13.55
-0.027,0.476,-0.021,-151.794,223.389,-34.119
0.064,0.57,-0.051,-132.996,245.483,-49.5
0.13,0.695,-0.202,-99.304,258.667,-53.406
0.166,0.769,-0.324,-55.481,276.672,-41.321
0.201,0.758,-0.363,-10.132,302.856,-15.015
0.259,0.738,-0.437,35.706,326.843,18.005
0.305,0.731,-0.538,77.271,349.67,59.387
0.36,0.616,-0.534,108.765,376.526,103.882
0.35,0.388,-0.482,133.972,395.142,132.935
0.432,0.217,-0.346,151.184,398.132,142.822
0.312,0.148,-0.362,160.095,382.507,136.353
0.48,0.179,-0.458,165.1,360.046,119.995
0.522,0.225,-0.549,160.95,337.036,109.192
0.585,0.143,-0.85,153.87,298.523,97.534
0.675,0.044,-1.283,150.513,255.188,78.552
0.68,-0.084,-1.725,145.02,220.093,50.415
0.767,-0.112,-1.982,132.446,203.979,14.343
0.95,-0.079,-2.043,112.305,206.909,-11.841
1.168,-0.086,-2.043,87.219,220.825,-31.067
1.224,-0.097,-1.936,62.927,236.45,-46.204
1.293,-0.199,-1.855,40.771,240.295,-49.805
1.276,-0.436,-1.875,24.78,229.919,-59.143
1.269,-0.653,-1.848,24.353,212.646,-84.717
1.331,-0.664,-1.953,32.043,190.002,-112.183
1.374,-0.273,-2.083,33.936,172.241,-122.864
1.262,-0.042,-2.047,17.944,162.781,-84.717
1.387,-0.135,-1.846,-8.545,147.278,-35.156
1.446,-0.528,-1.771,-8.301,117.249,-4.7
1.155,-0.7,-1.635,5.31,88.196,2.075
1.063,-0.976,-1.494,20.386,62.134,-7.385
0.951,-0.978,-1.379,27.283,41.077,-43.64
0.958,-0.879,-1.31,31.616,28.809,-78.003
0.925,-0.709,-1.195,16.846,24.292,-91.064
0.88,-0.616,-1.04,-6.47,21.179,-91.736
0.886,-0.573,-0.875,-24.536,11.658,-81.665
0.89,-0.544,-0.728,-33.447,-7.996,-68.97
0.863,-0.508,-0.663,-31.86,-37.292,-58.533
0.832,-0.467,-0.686,-21.851,-69.519,-50.354
0.76,-0.42,-0.727,-10.986,-93.689,-40.833
0.703,-0.453,-0.742,-6.897,-106.201,-29.297
0.648,-0.493,-0.807,-4.211,-109.192,-25.024
0.582,-0.424,-0.85,-0.977,-101.624,-20.203
0.592,-0.356,-0.844,-5.127,-85.51,-10.62
0.545,-0.396,-0.825,-14.404,-67.017,-2.625
0.539,-0.441,-0.74,-18.86,-48.645,-0.977
0.593,-0.435,-0.676,-15.32,-37.17,-3.357
0.576,-0.423,-0.683,-11.536,-33.691,-8.789
0.548,-0.363,-0.71,-10.864,-30.579,-16.418
0.558,-0.286,-0.73,-11.353,-23.682,-17.639
0.558,-0.242,-0.733,-15.625,-14.648,-14.709
0.552,-0.237,-0.718,-19.409,-6.348,-10.437
0.564,-0.246,-0.71,-19.836,-1.282,-5.92
0.566,-0.252,-0.707,-18.311,0.854,-3.357
0.562,-0.254,-0.703,-15.747,1.404,-2.502
0.574,-0.25,-0.695,-14.526,0.183,-2.197
0.584,-0.246,-0.683,-15.259,-3.418,-2.991
0.583,-0.248,-0.673,-15.686,-8.606,-4.089
0.581,-0.248,-0.666,-14.465,-14.771,-5.859
0.583,-0.234,-0.659,-13.184,-21.606,-7.629
0.565,-0.242,-0.664,-12.878,-27.954,-8.179
0.555,-0.242,-0.666,-14.587,-32.043,-8.423
0.553,-0.237,-0.668,-16.174,-33.508,-7.568
0.542,-0.246,-0.682,-17.639,-33.02,-6.104
0.526,-0.245,-0.71,-18.494,-30.457,-4.944
0.513,-0.236,-0.726,-18.25,-24.109,-3.418
0.52,-0.224,-0.725,-18.433,-15.198,-0.977
0.538,-0.22,-0.719,-17.334,-6.775,2.319
0.554,-0.238,-0.72,-12.451,0.183,4.333
0.57,-0.257,-0.718,-6.592,6.47,5.859
0.585,-0.265,-0.706,-3.662,11.475,6.348
0.611,-0.26,-0.692,-0.854,14.404,6.409
0.634,-0.265,-0.681,1.648,13.306,6.958
0.644,-0.278,-0.668,1.831,8.667,7.263
0.649,-0.296,-0.65,1.221,2.808,7.568
0.646,-0.312,-0.641,-0.244,-3.113,6.531
0.646,-0.315,-0.645,-2.502,-8.85,4.578
0.645,-0.307,-0.661,-4.272,-14.221,3.479
0.641,-0.293,-0.686,-6.104,-17.639,3.296
-1.219,-0.931,0.883,7.69,-58.899,27.771
-1.379,-1.072,0.918,11.902,-82.642,36.072
-1.517,-1.111,0.953,11.719,-100.342,43.03
-1.575,-1.092,1.017,10.986,-114.868,46.143
-1.593,-1.058,1.079,17.273,-131.104,47.546
-1.599,-1.048,1.077,26.428,-149.109,51.636
-1.611,-1.076,1.039,28.32,-166.016,61.523
-1.633,-1.104,0.972,21.118,-177.185,77.82
-1.626,-1.107,0.9,9.827,-180.603,96.863
-1.578,-1.058,0.867,-3.54,-174.072,114.99
-1.483,-1.012,0.88,-16.541,-162.537,134.277
-1.396,-0.928,0.813,-31.189,-153.198,159.119
-1.318,-0.802,0.676,-46.57,-142.273,192.505
-1.225,-0.693,0.555,-58.044,-122.375,235.901
-1.15,-0.594,0.425,-64.819,-93.14,284.18
-1.107,-0.516,0.322,-70.801,-53.284,332.092
-1.03,-0.437,0.237,-76.05,-9.277,373.779
-0.908,-0.304,0.167,-77.271,33.508,408.813
-0.779,-0.123,0.13,-72.937,72.998,441.101
-0.661,0.054,0.146,-62.317,104.797,471.375
-0.512,0.193,0.183,-46.448,126.526,497.131
-0.342,0.287,0.228,-24.597,138.123,519.104
-0.177,0.381,0.297,2.686,139.16,537.476
-0.02,0.495,0.4,35.034,127.563,553.833
0.13,0.583,0.515,69.763,102.417,572.815
0.246,0.592,0.626,101.013,63.049,593.567
0.316,0.555,0.689,129.333,9.949,611.389
0.303,0.49,0.662,162.354,-50.415,620.178
0.205,0.397,0.601,195.862,-106.323,620.483
0.079,0.287,0.574,221.558,-150.513,616.516
-0.025,0.146,0.552,237.0,-181.702,606.445
-0.183,0.021,0.568,240.967,-193.298,588.745
-0.378,-0.123,0.632,237.61,-184.753,562.378
-0.492,-0.258,0.678,219.91,-159.363,525.818
-0.622,-0.359,0.75,186.096,-115.234,482.422
-0.721,-0.394,0.773,144.287,-60.303,433.044
-0.783,-0.366,0.732,96.924,-2.319,378.723
-0.78,-0.299,0.61,46.997,55.603,319.702
-0.696,-0.194,0.419,-3.174,109.436,257.874
-0.582,-0.076,0.177,-51.331,158.203,198.914
-0.455,0.018,-0.061,-96.802,204.773,143.494
-0.293,0.102,-0.281,-132.996,251.099,91.675
-0.051,0.239,-0.528,-150.269,295.593,40.649
0.182,0.402,-0.708,-142.151,338.928,-1.099
0.406,0.546,-0.833,-121.643,378.784,-27.344
0.641,0.63,-0.93,-93.628,409.363,-34.79
0.858,0.64,-1.017,-58.716,429.138,-24.902
1.048,0.554,-1.115,-19.775,435.669,-3.967
1.227,0.395,-1.214,16.357,425.964,23.01
1.356,0.209,-1.29,48.889,401.917,48.34
1.419,0.024,-1.333,80.505,368.713,66.467
1.384,-0.112,-1.383,104.614,330.261,76.965
1.365,-0.18,-1.42,116.028,293.518,80.75
1.45,-0.211,-1.371,114.807,264.587,79.285
1.367,-0.201,-1.32,101.135,237.366,75.256
1.593,-0.215,-1.365,78.674,202.881,68.97
1.492,-0.198,-1.328,54.016,159.363,57.983
1.512,-0.288,-1.272,32.104,105.103,45.959
1.513,-0.377,-1.402,26.855,41.382,21.79
1.294,-0.474,-1.553,27.161,-4.7,-0.977
1.218,-0.39,-1.518,24.475,-21.851,-32.349
1.272,-0.378,-1.484,19.409,-26.306,-41.138
1.189,-0.426,-1.457,4.639,-20.996,-50.842
1.07,-0.441,-1.415,-1.099,-3.113,-60.181
1.002,-0.442,-1.325,-4.211,22.156,-56.274
1.006,-0.375,-1.145,-11.536,49.316,-53.04
1.07,-0.374,-0.889,-15.015,67.993,-43.701
1.09,-0.439,-0.6,-15.259,68.481,-31.372
1.119,-0.527,-0.359,-8.667,44.983,-25.391
1.124,-0.545,-0.259,0.549,0.366,-24.902
1.04,-0.557,-0.291,6.897,-50.354,-23.621
0.937,-0.556,-0.397,8.545,-92.529,-24.17
0.814,-0.496,-0.541,9.399,-115.234,-24.353
0.777,-0.503,-0.608,6.897,-114.746,-19.104
0.654,-0.487,-0.633,3.967,-98.755,-17.883
0.66,-0.521,-0.62,5.371,-77.026,-16.846
0.63,-0.504,-0.59,8.24,-54.443,-21.729
0.652,-0.499,-0.521,10.803,-32.837,-25.513
0.72,-0.459,-0.403,11.108,-16.418,-30.579
0.717,-0.465,-0.406,10.01,-10.01,-32.471
0.744,-0.353,-0.409,7.751,-6.531,-32.959
0.745,-0.288,-0.432,3.174,-4.272,-21.729
0.748,-0.299,-0.43,-4.7,-3.723,-10.925
0.776,-0.321,-0.444,-5.859,-6.104,-4.456
0.755,-0.384,-0.505,-0.854,-11.414,-0.916
0.682,-0.38,-0.582,2.014,-14.404,-5.371
0.681,-0.379,-0.658,5.92,-11.353,-12.695
0.672,-0.356,-0.677,3.174,-1.465,-18.127
0.699,-0.306,-0.66,-1.892,10.681,-21.973
0.741,-0.247,-0.632,-4.028,20.142,-20.264
0.771,-0.214,-0.59,-4.028,24.292,-14.465
0.802,-0.23,-0.542,-3.54,21.729,-7.935
0.8,-0.283,-0.516,-1.465,13.611,-2.502
0.762,-0.342,-0.532,0.427,3.113,-0.977
0.741,-0.365,-0.559,1.404,-4.761,-3.418
0.73,-0.338,-0.568,1.099,-7.629,-6.653
0.738,-0.307,-0.558,-1.953,-8.362,-7.812
0.736,-0.309,-0.543,-5.371,-10.01,-7.996
0.734,-0.328,-0.533,-7.324,-12.695,-7.935
0.725,-0.338,-0.531,-7.507,-14.526,-8.972
0.713,-0.334,-0.543,-7.446,-15.32,-10.62
0.698,-0.318,-0.565,-7.446,-13.916,-11.414
0.693,-0.295,-0.579,-7.141,-9.521,-10.376
0.706,-0.266,-0.572,-7.202,-3.723,-7.324
0.726,-0.249,-0.552,-6.042,0.61,-2.686
0.738,-0.256,-0.536,-2.991,2.563,2.258
0.745,-0.269,-0.536,0.793,2.686,6.897
0.741,-0.282,-0.545,4.7,2.747,11.047
0.738,-0.304,-0.555,7.751,2.93,13.184
0.733,-0.323,-0.551,7.629,3.418,12.939
0.743,-0.328,-0.539,6.592,4.272,11.597
0.751,-0.325,-0.529,5.798,3.967,9.46
0.749,-0.325,-0.529,4.7,2.38,6.958
0.751,-0.324,-0.534,2.93,1.038,4.639
0.752,-0.324,-0.538,2.136,0.977,2.258
0.755,-0.325,-0.543,1.343,1.587,-0.122
0.758,-0.323,-0.546,0.427,2.502,-1.77
0.761,-0.319,-0.544,-0.61,3.174,-2.686
0.768,-0.316,-0.544,-1.404,3.54,-3.113
-1.317,-0.941,0.828,38.574,-87.585,59.631
-1.52,-1.102,0.866,41.565,-110.535,76.843
-1.695,-1.178,0.893,38.696,-128.967,88.013
-1.794,-1.201,0.911,38.452,-144.104,94.116
-1.792,-1.265,0.988,43.213,-155.334,98.022
-1.755,-1.31,1.04,42.175,-167.236,98.145
-1.712,-1.3,1.057,33.63,-178.894,95.642
-1.679,-1.248,1.038,20.752,-188.477,98.633
-1.66,-1.192,0.98,4.944,-194.153,109.802
-1.615,-1.203,0.911,-12.939,-194.885,130.127
-1.572,-1.166,0.76,-37.903,-190.735,159.302
-1.502,-1.147,0.651,-66.345,-175.72,199.402
-1.433,-1.099,0.51,-90.82,-152.954,244.629
-1.375,-1.0,0.298,-108.521,-121.582,290.344
-1.352,-0.864,0.13,-122.742,-77.087,334.839
-1.287,-0.7,-0.001,-134.888,-22.156,372.314
-1.154,-0.508,-0.135,-140.991,35.583,401.184
-1.02,-0.308,-0.227,-140.381,94.116,425.354
-0.886,-0.09,-0.254,-134.827,150.452,446.716
-0.735,0.145,-0.216,-121.521,199.89,465.759
-0.554,0.358,-0.142,-97.9,237.305,482.483
-0.353,0.537,-0.042,-63.904,260.864,498.84
-0.145,0.705,0.149,-25.024,268.799,516.357
0.105,0.845,0.44,17.029,254.211,539.429
0.376,0.912,0.776,59.814,209.412,569.763
0.652,0.859,1.128,99.67,126.587,600.647
0.643,0.729,0.868,137.939,6.042,625.793
0.469,0.553,0.538,172.791,-97.717,635.315
0.301,0.311,0.422,205.017,-155.884,630.676
0.19,0.151,0.301,229.126,-194.58,615.051
0.093,0.035,0.281,234.863,-208.191,592.529
-0.146,-0.101,0.414,236.694,-203.979,559.875
-0.281,-0.204,0.523,229.614,-191.833,515.747
-0.389,-0.276,0.635,205.2,-163.391,466.37
-0.516,-0.338,0.759,169.861,-118.225,415.649
-0.621,-0.368,0.85,122.559,-61.951,362.183
-0.646,-0.391,0.882,69.153,-1.831,305.908
-0.616,-0.383,0.894,13.794,52.429,246.765
-0.56,-0.228,0.789,-37.109,91.37,183.716
-0.506,0.052,0.551,-77.454,116.943,125.183
-0.456,0.302,0.275,-108.887,141.663,80.017
-0.379,0.443,0.046,-132.69,174.316,47.974
-0.272,0.496,-0.099,-141.418,213.745,22.705
-0.084,0.59,-0.266,-128.357,252.441,-2.014
0.06,0.745,-0.424,-94.421,287.903,-16.113
0.164,0.871,-0.559,-55.664,324.951,-11.169
0.284,0.87,-0.655,-19.104,363.159,9.399
0.406,0.779,-0.698,17.822,398.071,36.621
0.5,0.636,-0.734,55.481,422.913,63.11
0.614,0.468,-0.804,87.891,435.425,82.336
0.784,0.251,-0.845,115.906,434.448,90.027
0.861,0.154,-0.93,141.907,416.626,82.581
1.116,0.111,-1.044,163.208,386.841,74.646
1.14,0.119,-1.199,172.852,345.398,66.956
1.245,0.072,-1.527,169.922,293.518,57.556
1.359,-0.029,-1.829,151.794,248.901,49.011
1.288,-0.26,-2.023,115.295,219.543,40.527
1.552,-0.353,-1.966,77.82,197.51,16.846
1.616,-0.389,-1.883,45.776,171.57,-1.038
1.595,-0.417,-1.967,15.32,146.179,-19.104
1.362,-0.556,-2.151,-9.827,140.32,-34.973
1.288,-0.715,-2.154,-35.889,159.18,-57.19
1.418,-0.559,-1.875,-45.105,178.223,-93.75
1.551,-0.337,-1.553,-30.701,174.988,-105.347
1.48,-0.135,-1.37,-17.456,147.522,-96.863
1.396,-0.015,-1.164,-3.967,111.755,-70.251
1.305,-0.161,-1.039,4.395,71.289,-22.156
1.173,-0.419,-0.882,10.864,31.067,7.019
1.018,-0.696,-0.802,29.236,-9.705,14.832
0.942,-0.823,-0.795,43.701,-44.495,5.92
0.888,-0.785,-0.834,46.387,-67.2,-13.55
0.812,-0.698,-0.896,37.598,-74.707,-30.151
0.735,-0.658,-0.929,19.531,-66.895,-39.185
0.68,-0.635,-0.9,-0.183,-48.157,-44.006
0.677,-0.603,-0.816,-13.916,-26.123,-46.021
0.695,-0.554,-0.714,-19.836,-9.094,-48.157
0.716,-0.489,-0.614,-20.935,-0.916,-49.316
0.762,-0.418,-0.507,-19.836,0.0,-46.509
0.787,-0.363,-0.41,-18.738,-6.592,-38.208
0.821,-0.332,-0.342,-16.724,-21.118,-26.978
0.804,-0.311,-0.331,-12.207,-41.992,-15.564
0.771,-0.328,-0.426,-6.287,-64.209,-4.578
0.67,-0.337,-0.542,-0.305,-77.209,1.221
0.677,-0.28,-0.587,5.432,-78.308,5.188
0.647,-0.294,-0.678,8.179,-75.134,8.118
0.597,-0.294,-0.773,7.874,-64.697,5.676
0.585,-0.26,-0.827,8.057,-44.739,3.784
0.586,-0.245,-0.832,3.174,-19.653,3.418
0.617,-0.25,-0.781,-3.296,4.517,-0.854
0.67,-0.265,-0.703,-6.653,22.461,-3.906
0.704,-0.273,-0.619,-8.667,31.25,-8.545
0.728,-0.266,-0.557,-7.996,30.334,-14.832
0.765,-0.231,-0.514,-7.324,22.034,-18.494
0.784,-0.199,-0.496,-8.423,9.094,-17.883
0.775,-0.192,-0.508,-10.437,-6.775,-14.282
0.748,-0.2,-0.552,-9.888,-22.095,-9.766
0.707,-0.214,-0.614,-6.958,-32.471,-6.287
0.67,-0.218,-0.666,-4.272,-34.302,-3.784
0.645,-0.228,-0.693,-2.686,-28.809,-2.38
0.637,-0.242,-0.69,-3.174,-18.494,-1.953
0.646,-0.271,-0.658,-4.7,-6.653,-2.625
0.663,-0.292,-0.62,-6.775,2.686,-4.456
0.681,-0.297,-0.594,-7.751,7.507,-7.996
0.693,-0.286,-0.589,-7.263,8.179,-12.085
0.696,-0.267,-0.601,-7.69,7.751,-14.343
0.698,-0.251,-0.62,-8.118,7.324,-13.977
0.706,-0.24,-0.631,-8.423,7.812,-12.146
0.713,-0.231,-0.625,-7.446,8.85,-9.216
0.721,-0.227,-0.613,-4.7,9.583,-6.47
0.734,-0.233,-0.604,-0.488,8.484,-4.395
0.744,-0.246,-0.59,2.38,5.493,-2.441
0.744,-0.273,-0.571,2.625,1.404,-0.488
0.744,-0.306,-0.559,1.221,-2.93,0.305
0.741,-0.331,-0.566,0.061,-8.057,-0.793
0.729,-0.328,-0.585,-1.709,-12.756,-2.747
0.717,-0.315,-0.618,-3.113,-15.015,-5.066
0.713,-0.297,-0.651,-3.54,-14.221,-6.653
0.713,-0.287,-0.673,-4.333,-10.193,-7.019
0.719,-0.284,-0.677,-4.089,-4.211,-6.348
-1.543,-0.925,0.716,4.883,-65.735,59.875
-1.681,-1.041,0.78,2.38,-74.402,66.101
-1.783,-1.041,0.841,-4.944,-79.895,65.491
-1.805,-0.956,0.888,-15.808,-84.229,61.523
-1.81,-0.84,0.925,-19.653,-87.769,62.988
-1.84,-0.72,0.961,-15.625,-92.102,73.547
-1.898,-0.655,0.967,-5.981,-99.548,93.628
-1.93,-0.7,0.927,5.92,-107.788,122.437
-1.912,-0.816,0.883,13.184,-113.647,155.273
-1.837,-0.958,0.874,11.23,-115.295,188.721
-1.774,-1.026,0.79,0.366,-113.464,220.398
-1.685,-1.037,0.717,-14.893,-105.286,252.075
-1.55,-1.015,0.625,-29.48,-92.041,281.799
-1.393,-0.967,0.5,-44.983,-74.646,307.495
-1.249,-0.894,0.326,-61.768,-51.697,333.618
-1.156,-0.82,0.167,-80.566,-21.301,361.023
-1.072,-0.732,0.033,-101.807,14.587,385.62
-0.964,-0.591,-0.088,-117.981,51.514,405.212
-0.833,-0.4,-0.185,-123.291,89.722,421.753
-0.683,-0.182,-0.214,-120.239,127.625,440.247
-0.513,0.036,-0.175,-109.192,160.645,460.815
-0.338,0.236,-0.086,-86.304,183.899,482.178
-0.162,0.404,0.066,-53.711,196.289,503.784
0.015,0.566,0.293,-18.005,194.031,526.733
0.232,0.744,0.562,19.836,168.274,554.749
0.436,0.866,0.836,63.293,114.258,588.318
0.581,0.849,0.947,104.919,32.593,621.582
0.465,0.696,0.645,139.771,-58.716,649.597
0.337,0.457,0.483,168.213,-117.126,664.795
0.218,0.225,0.42,201.477,-151.184,660.95
0.042,0.145,0.362,229.431,-170.593,638.489
-0.152,0.058,0.372,246.399,-173.34,603.943
-0.266,-0.048,0.412,240.173,-158.936,558.96
-0.403,-0.164,0.501,217.468,-129.761,510.315
-0.553,-0.252,0.605,183.777,-89.6,458.069
-0.675,-0.296,0.654,140.686,-43.884,397.766
-0.753,-0.251,0.637,90.027,3.174,332.825
-0.788,-0.124,0.59,34.363,53.894,268.188
-0.759,0.06,0.519,-19.958,103.577,205.444
-0.69,0.26,0.4,-68.787,147.827,145.996
-0.573,0.449,0.261,-107.3,190.613,96.802
-0.425,0.621,0.142,-128.418,230.774,59.814
-0.287,0.792,0.024,-126.343,263.794,30.151
-0.154,0.936,-0.063,-100.83,291.382,10.559
0.026,1.069,-0.141,-59.998,314.697,5.859
0.176,1.167,-0.241,-2.869,331.238,16.357
0.266,1.196,-0.344,59.448,342.529,42.664
0.367,1.096,-0.496,114.868,348.083,79.468
0.479,0.859,-0.691,159.485,351.746,118.652
0.577,0.523,-0.907,194.946,354.004,145.508
0.77,0.228,-1.098,217.896,349.609,151.428
0.893,0.002,-1.294,221.985,332.214,140.259
0.94,0.014,-1.63,210.815,303.65,112.488
1.086,-0.061,-1.805,177.612,281.738,89.05
1.157,-0.182,-1.931,134.46,264.587,56.458
1.246,-0.313,-2.044,104.004,253.418,21.24
1.336,-0.37,-2.149,83.984,250.122,-13.0
1.368,-0.252,-2.179,65.063,250.488,-40.527
1.446,-0.083,-2.091,54.077,246.643,-56.763
1.6,0.122,-2.033,57.312,232.239,-61.829
1.58,0.204,-1.732,63.904,213.867,-47.729
1.594,-0.085,-1.235,64.636,175.232,-22.4
1.627,-0.539,-1.36,68.542,100.647,-14.16
1.284,-0.614,-1.401,76.965,45.349,-21.545
1.159,-0.571,-1.406,67.81,13.916,-14.099
1.154,-0.543,-1.425,49.011,-9.644,-15.442
1.078,-0.734,-1.319,35.156,-16.724,-11.597
0.904,-0.743,-1.201,24.353,-19.104,-16.968
0.999,-0.7,-1.182,23.437,-18.738,-21.851
0.884,-0.565,-1.14,16.907,-7.629,-28.442
0.826,-0.477,-0.991,9.583,12.146,-27.649
0.963,-0.579,-0.813,1.709,23.682,-19.226
0.937,-0.54,-0.741,-0.854,21.423,-26.001
0.918,-0.522,-0.733,0.427,11.475,-21.973
0.826,-0.49,-0.765,-4.639,2.441,-25.146
0.837,-0.387,-0.752,-6.531,-0.061,-30.09
0.893,-0.233,-0.642,-8.362,0.122,-25.635
0.87,-0.195,-0.568,-10.254,-7.446,-16.357
0.883,-0.194,-0.548,-6.165,-21.423,-11.841
0.912,-0.176,-0.542,2.502,-36.56,-6.042
0.863,-0.184,-0.571,4.578,-52.124,0.549
0.793,-0.214,-0.653,2.197,-62.988,3.174
0.721,-0.222,-0.738,1.343,-64.636,2.38
0.682,-0.189,-0.797,-0.732,-56.213,-1.465
0.675,-0.166,-0.831,-5.127,-41.382,-5.554
0.665,-0.157,-0.812,-13.123,-23.315,-8.118
0.69,-0.222,-0.767,-22.644,-7.324,-11.23
0.715,-0.167,-0.685,-28.931,1.709,-19.531
0.722,-0.208,-0.579,-32.715,2.93,-23.254
0.728,-0.21,-0.499,-37.903,-6.897,-33.203
0.787,-0.127,-0.501,-34.424,-23.743,-40.161
0.734,-0.054,-0.506,-30.029,-39.185,-38.208
0.687,-0.041,-0.518,-27.039,-50.781,-32.043
0.698,-0.061,-0.584,-18.25,-58.96,-24.17
0.657,-0.114,-0.629,-11.047,-59.448,-13.55
0.61,-0.165,-0.651,-7.019,-53.589,-8.057
0.611,-0.204,-0.697,-2.319,-44.922,-6.104
0.586,-0.226,-0.724,-2.808,-31.494,-6.47
0.569,-0.22,-0.718,-7.629,-14.648,-9.033
0.596,-0.217,-0.695,-14.221,1.343,-10.071
0.625,-0.225,-0.644,-22.522,13.794,-12.207
0.657,-0.224,-0.582,-28.809,19.531,-14.954
0.698,-0.208,-0.538,-32.166,17.578,-17.09
0.72,-0.19,-0.516,-34.302,10.559,-17.395
0.722,-0.169,-0.512,-34.058,1.099,-15.869
0.714,-0.145,-0.526,-29.602,-7.935,-12.39
0.693,-0.125,-0.556,-22.156,-15.503,-8.667
0.678,-0.123,-0.593,-12.451,-18.982,-4.761
0.67,-0.145,-0.626,-4.456,-16.785,-0.427
0.666,-0.183,-0.639,-0.122,-10.376,4.578
0.668,-0.225,-0.633,0.305,-2.686,8.423
0.679,-0.253,-0.622,-0.916,4.456,9.338
0.699,-0.263,-0.607,-3.845,9.155,8.606
0.721,-0.256,-0.593,-8.972,9.766,7.507
0.729,-0.246,-0.588,-15.015,6.531,6.47
0.732,-0.229,-0.589,-19.775,1.77,5.676
0.731,-0.216,-0.601,-21.362,-2.686,5.737
0.724,-0.206,-0.618,-20.264,-4.883,5.737
0.716,-0.182,-0.634,-16.663,-4.822,6.226
-1.268,-0.739,0.867,23.743,-69.702,30.701
-1.409,-0.891,0.967,25.513,-94.421,41.748
-1.533,-1.021,1.031,19.226,-122.009,49.805
-1.645,-1.042,1.011,10.742,-148.071,48.462
-1.652,-0.996,1.012,2.869,-166.687,42.847
-1.625,-0.875,0.942,-2.869,-182.007,40.466
-1.632,-0.717,0.849,-5.432,-193.115,45.349
-1.672,-0.626,0.823,-4.028,-194.58,60.303
-1.72,-0.638,0.853,-2.014,-190.063,82.458
-1.749,-0.728,0.91,-2.075,-184.692,107.849
-1.743,-0.816,0.894,-6.042,-179.565,131.714
-1.68,-0.866,0.85,-19.775,-168.518,155.762
-1.594,-0.881,0.78,-38.269,-151.611,185.181
-1.546,-0.813,0.658,-59.265,-129.272,218.994
-1.481,-0.757,0.54,-80.078,-98.511,258.484
-1.398,-0.733,0.42,-98.267,-62.195,300.049
-1.299,-0.698,0.27,-112.915,-23.743,335.937
-1.186,-0.613,0.109,-122.437,16.663,362.976
-1.052,-0.449,-0.021,-126.038,59.998,386.536
-0.921,-0.245,-0.101,-120.972,102.661,409.18
-0.782,-0.053,-0.116,-106.567,141.113,430.237
-0.619,0.115,-0.075,-85.693,172.302,451.111
-0.435,0.238,0.016,-58.167,191.589,472.534
-0.225,0.318,0.153,-27.405,194.031,493.286
-0.002,0.381,0.344,2.686,175.842,514.893
0.238,0.458,0.568,28.259,137.634,541.26
0.463,0.484,0.765,49.072,78.918,573.669
0.52,0.373,0.715,65.002,-0.549,607.117
0.407,0.315,0.478,74.219,-75.745,637.329
0.254,0.219,0.397,95.703,-122.07,656.494
0.092,0.162,0.41,126.892,-152.649,657.593
-0.027,0.172,0.456,154.48,-176.514,651.733
-0.143,0.189,0.518,174.744,-187.866,644.104
-0.338,0.118,0.626,191.162,-186.951,627.808
-0.417,-0.014,0.677,193.665,-176.025,596.008
-0.516,-0.1,0.754,171.997,-147.827,552.185
-0.623,-0.161,0.8,145.691,-106.628,501.648
-0.726,-0.16,0.793,109.436,-57.8,444.153
-0.806,-0.126,0.734,63.477,-3.784,383.606
-0.826,-0.058,0.617,11.536,50.659,323.242
-0.801,0.052,0.449,-40.771,98.999,260.864
-0.75,0.195,0.232,-88.196,137.817,198.73
-0.668,0.335,0.004,-128.54,175.171,139.404
-0.54,0.444,-0.221,-152.771,218.445,87.097
-0.386,0.555,-0.42,-156.372,266.968,41.931
-0.158,0.717,-0.601,-140.869,317.871,6.836
0.094,0.914,-0.699,-105.53,363.647,-9.155
0.324,1.117,-0.675,-59.326,400.635,-3.052
0.561,1.265,-0.634,-2.747,421.509,18.494
0.777,1.289,-0.628,64.697,422.119,53.894
0.912,1.112,-0.655,130.859,402.954,93.323
0.979,0.721,-0.734,184.143,367.92,122.681
0.999,0.315,-0.897,221.008,328.796,130.554
1.072,0.048,-0.894,234.619,297.913,122.925
1.076,-0.153,-0.942,221.68,269.348,105.591
1.06,-0.158,-1.194,194.458,243.835,75.562
1.119,-0.207,-1.387,156.799,229.98,50.964
1.214,-0.277,-1.497,104.675,222.534,27.161
1.204,-0.339,-1.65,59.387,218.323,4.333
1.25,-0.239,-1.755,28.687,218.14,-15.808
1.424,-0.212,-1.818,9.216,220.886,-27.405
1.284,-0.063,-1.698,3.235,221.069,-38.33
1.49,-0.022,-1.581,11.536,203.491,-35.767
1.5,-0.172,-1.608,25.391,171.814,-31.677
1.174,-0.414,-2.019,39.856,146.851,-33.02
1.129,-0.249,-1.798,53.955,158.936,-43.823
1.262,-0.078,-1.589,54.504,171.265,-29.846
1.315,-0.272,-1.413,43.335,158.508,-13.794
1.411,-0.367,-1.127,40.649,134.705,-13.184
1.266,-0.465,-1.002,44.556,88.501,-2.747
1.133,-0.643,-0.976,43.884,38.635,-10.498
1.006,-0.688,-1.028,43.762,-1.404,-28.625
0.933,-0.625,-1.152,39.734,-20.203,-47.974
0.837,-0.538,-1.149,23.682,-15.076,-59.265
0.824,-0.443,-1.082,3.418,0.61,-66.711
0.912,-0.415,-0.965,-11.23,13.062,-62.744
0.902,-0.412,-0.822,-21.912,15.564,-57.678
0.879,-0.458,-0.736,-22.949,6.226,-53.711
0.883,-0.462,-0.71,-18.982,-7.629,-53.101
0.856,-0.381,-0.687,-14.648,-18.494,-52.124
0.859,-0.32,-0.655,-8.972,-28.748,-47.607
0.847,-0.316,-0.66,-3.845,-43.03,-43.884
0.793,-0.269,-0.737,3.723,-55.603,-42.053
0.766,-0.167,-0.798,9.338,-57.373,-30.945
0.713,-0.193,-0.819,4.7,-50.72,-13.428
0.708,-0.288,-0.795,-0.671,-40.527,-4.578
0.7,-0.383,-0.768,2.502,-31.494,-0.61
0.661,-0.399,-0.735,3.723,-25.757,-4.639
0.654,-0.388,-0.734,2.197,-21.667,-13.062
0.675,-0.339,-0.747,-2.991,-16.296,-19.958
0.657,-0.283,-0.708,-11.658,-8.789,-21.729
0.674,-0.246,-0.638,-21.484,-4.272,-19.47
0.699,-0.241,-0.573,-28.259,-5.737,-16.296
0.727,-0.219,-0.521,-29.785,-13.184,-12.695
0.699,-0.212,-0.528,-29.297,-25.635,-7.629
0.67,-0.203,-0.574,-28.32,-37.17,-3.54
0.641,-0.198,-0.633,-25.269,-42.48,0.732
0.596,-0.201,-0.674,-21.301,-40.527,3.601
0.576,-0.204,-0.696,-16.541,-32.776,3.784
0.585,-0.2,-0.709,-11.353,-22.522,2.197
0.593,-0.187,-0.715,-6.958,-12.756,0.0
0.603,-0.173,-0.707,-5.005,-5.493,-2.319
0.615,-0.169,-0.684,-5.188,-0.183,-3.723
0.623,-0.175,-0.652,-6.592,4.456,-5.005
0.636,-0.19,-0.617,-8.789,7.568,-6.165
0.651,-0.201,-0.584,-11.841,7.935,-8.179
0.658,-0.202,-0.568,-14.465,5.31,-10.315
0.666,-0.184,-0.568,-16.663,1.648,-10.803
0.673,-0.153,-0.583,-17.761,-1.831,-9.399
0.672,-0.133,-0.605,-16.357,-4.089,-6.47
0.674,-0.125,-0.63,-13.428,-4.761,-2.014
0.676,-0.127,-0.655,-9.399,-4.089,2.991
0.677,-0.134,-0.679,-3.479,-2.502,7.446
0.679,-0.15,-0.699,1.831,-0.793,10.864
0.693,-0.172,-0.71,5.127,1.343,13.062
0.703,-0.197,-0.7,5.005,2.991,14.648
0.709,-0.222,-0.683,3.845,3.052,13.611
0.72,-0.24,-0.668,2.136,1.282,10.01
0.724,-0.246,-0.654,-1.343,-1.465,5.859
-1.463,-0.773,0.85,52.124,-56.213,87.402
-1.616,-0.945,0.852,54.81,-76.294,109.131
-1.753,-1.07,0.92,55.786,-87.341,122.925
-1.864,-1.093,1.005,51.636,-87.769,132.69
-1.92,-1.104,1.069,43.823,-84.839,139.099
-1.944,-1.144,1.075,40.1,-90.393,143.433
-1.923,-1.21,1.093,35.95,-102.234,154.663
-1.926,-1.281,1.083,29.175,-117.432,171.326
-1.926,-1.328,1.038,21.973,-134.277,189.026
-1.897,-1.355,0.938,10.742,-149.292,207.52
-1.812,-1.327,0.815,-12.39,-154.541,229.065
-1.706,-1.292,0.717,-41.26,-147.522,256.042
-1.616,-1.256,0.597,-69.336,-133.972,282.349
-1.505,-1.162,0.427,-93.994,-116.211,303.711
-1.353,-0.996,0.171,-110.84,-92.407,323.12
-1.245,-0.823,-0.042,-123.718,-55.786,348.877
-1.175,-0.64,-0.178,-138.916,-7.324,376.648
-1.052,-0.404,-0.284,-145.752,42.603,397.766
-0.886,-0.145,-0.349,-137.329,89.661,415.222
-0.698,0.138,-0.362,-122.375,130.798,435.791
-0.504,0.377,-0.315,-102.539,162.231,461.609
-0.306,0.532,-0.209,-74.646,180.481,488.403
-0.118,0.641,-0.026,-42.236,185.059,512.695
0.113,0.753,0.272,-7.202,171.387,540.466
0.389,0.869,0.697,30.334,131.042,574.28
0.782,0.874,1.362,70.862,51.147,608.459
0.714,0.755,0.964,106.384,-77.82,638.0
0.409,0.589,0.538,119.08,-172.119,658.813
0.165,0.249,0.478,139.771,-199.036,665.405
-0.007,0.062,0.382,165.405,-210.632,640.503
-0.197,0.015,0.379,177.979,-200.317,601.685
-0.363,-0.033,0.462,182.983,-176.208,551.392
-0.474,-0.064,0.547,173.157,-141.357,489.075
-0.53,-0.119,0.649,146.667,-95.337,428.894
-0.591,-0.178,0.727,105.896,-42.542,369.751
-0.612,-0.202,0.699,56.946,9.399,305.359
-0.598,-0.133,0.615,5.066,58.167,239.136
-0.54,0.058,0.523,-43.274,102.783,174.377
-0.434,0.316,0.451,-81.177,139.893,116.272
-0.317,0.581,0.385,-102.844,170.166,71.533
-0.217,0.796,0.313,-105.713,196.045,42.542
-0.112,0.94,0.271,-94.36,217.041,28.076
0.007,1.037,0.204,-69.031,231.689,25.146
0.106,1.032,0.127,-29.175,242.554,34.973
0.182,0.908,0.075,13.367,249.695,52.856
0.227,0.837,0.044,59.204,251.038,69.824
0.242,0.902,-0.065,106.201,244.446,90.21
0.247,0.861,-0.275,149.719,237.61,116.943
0.289,0.71,-0.438,188.843,238.525,135.864
0.397,0.562,-0.497,216.98,244.812,147.156
0.487,0.385,-0.575,232.239,249.207,151.672
0.547,0.181,-0.611,232.788,250.671,141.968
0.602,0.001,-0.688,218.933,249.634,119.751
0.674,-0.224,-0.778,185.364,248.657,94.238
0.75,-0.398,-0.952,139.954,249.146,62.195
0.843,-0.502,-1.177,96.985,252.38,29.541
0.937,-0.471,-1.423,61.401,258.728,-0.122
0.993,-0.384,-1.726,37.354,268.494,-21.362
1.145,-0.348,-1.919,25.146,285.034,-31.799
1.164,-0.324,-2.013,25.146,304.871,-33.752
1.35,-0.238,-2.098,36.438,323.059,-28.259
1.58,-0.238,-1.989,54.565,333.74,-16.296
1.706,-0.055,-1.676,75.378,313.538,-4.333
1.858,-0.2,-1.368,91.919,239.563,16.541
1.548,-0.602,-1.761,94.849,139.587,15.503
1.284,-0.608,-1.712,96.313,90.942,2.502
1.305,-0.551,-1.58,75.562,76.172,3.845
1.287,-0.633,-1.447,40.039,60.364,-8.972
1.266,-0.747,-1.234,19.287,36.011,-26.367
1.149,-0.898,-1.11,7.568,-2.869,-43.64
1.358,-0.461,-1.207,5.493,-43.457,-71.594
1.202,-0.2,-1.284,2.502,-62.622,-54.565
0.952,-0.312,-1.186,-20.63,-59.021,-30.64
0.92,-0.591,-1.124,-19.897,-53.528,-18.677
0.875,-0.643,-1.115,-6.104,-44.312,-21.423
0.782,-0.653,-1.083,0.061,-25.94,-31.311
0.702,-0.567,-1.041,-0.916,-0.61,-48.218
0.816,-0.452,-0.891,-3.357,26.062,-52.185
0.91,-0.357,-0.594,-11.536,42.48,-47.668
0.958,-0.392,-0.388,-19.531,33.325,-37.109
1.0,-0.414,-0.324,-23.01,3.906,-29.785
0.957,-0.334,-0.343,-26.245,-30.701,-21.484
0.856,-0.28,-0.461,-30.579,-61.707,-9.949
0.775,-0.261,-0.587,-32.715,-79.834,-2.075
0.725,-0.262,-0.682,-30.09,-83.191,3.967
0.685,-0.256,-0.732,-25.757,-77.026,7.08
0.643,-0.242,-0.755,-21.729,-65.43,6.165
0.623,-0.227,-0.764,-16.418,-49.5,2.136
0.653,-0.183,-0.74,-10.681,-31.189,-2.869
0.635,-0.126,-0.671,-6.47,-13.489,-5.188
0.725,-0.107,-0.589,-5.859,-2.197,-4.578
0.777,-0.198,-0.5,-7.996,0.732,-2.258
0.69,-0.299,-0.486,-12.756,-5.371,-3.235
0.676,-0.357,-0.51,-15.991,-13.0,-12.512
0.738,-0.222,-0.498,-19.165,-17.09,-22.339
0.706,-0.101,-0.486,-25.146,-21.545,-20.63
0.707,-0.097,-0.474,-30.64,-27.344,-15.381
0.726,-0.15,-0.482,-29.541,-33.752,-7.751
0.703,-0.176,-0.513,-24.414,-38.513,-2.563
0.672,-0.171,-0.567,-16.724,-40.1,0.122
0.623,-0.161,-0.631,-9.644,-36.255,2.014
0.614,-0.17,-0.685,-5.005,-24.902,3.723
0.596,-0.193,-0.696,-3.174,-7.751,5.005
0.621,-0.225,-0.663,-3.723,10.01,4.7
0.663,-0.252,-0.6,-6.287,21.912,1.465
0.708,-0.262,-0.539,-10.254,25.146,-3.174
0.738,-0.253,-0.495,-15.137,21.301,-7.996
0.746,-0.239,-0.471,-20.081,12.024,-11.536
0.743,-0.217,-0.474,-23.743,0.549,-12.817
0.733,-0.197,-0.513,-23.193,-8.545,-12.634
0.715,-0.181,-0.563,-17.578,-13.977,-11.536
0.699,-0.179,-0.617,-10.376,-14.099,-9.46
0.695,-0.19,-0.657,-3.906,-8.362,-6.042
0.697,-0.209,-0.67,1.038,1.221,-1.892
0.709,-0.23,-0.655,4.333,11.658,1.953
0.732,-0.254,-0.624,5.92,19.836,5.066
0.758,-0.267,-0.588,5.92,23.376,7.446
0.776,-0.276,-0.558,5.31,21.362,8.24
0.781,-0.284,-0.543,4.028,14.771,6.897
-1.461,-0.66,0.812,54.077,-65.857,73.486
-1.628,-0.808,0.885,58.655,-82.581,89.111
-1.774,-0.958,0.966,57.556,-95.886,105.591
-1.916,-1.05,1.025,53.223,-107.361,112.122
-1.971,-1.112,1.101,48.035,-117.493,110.413
-1.967,-1.162,1.137,39.307,-130.31,106.75
-2.019,-1.126,1.051,29.419,-146.912,101.685
-2.04,-1.071,1.008,20.325,-154.053,103.21
-2.051,-1.031,0.96,11.047,-155.762,113.892
-2.014,-1.068,0.842,-4.15,-155.457,132.874
-1.884,-1.094,0.775,-25.391,-148.865,161.743
-1.797,-0.981,0.658,-45.166,-135.376,196.838
-1.638,-0.84,0.49,-65.491,-115.173,238.708
-1.484,-0.704,0.284,-80.627,-87.158,286.316
-1.431,-0.623,0.135,-90.698,-46.143,331.482
-1.331,-0.593,0.003,-100.952,0.854,369.873
-1.121,-0.543,-0.159,-108.154,45.349,396.484
-0.926,-0.413,-0.288,-111.267,87.952,413.818
-0.783,-0.197,-0.335,-113.586,128.906,429.26
-0.627,0.038,-0.326,-107.666,162.415,446.106
-0.453,0.214,-0.288,-90.515,183.289,463.257
-0.29,0.321,-0.198,-72.51,191.711,480.103
-0.107,0.405,0.005,-56.763,189.331,500.244
0.135,0.519,0.334,-36.438,169.617,525.391
0.477,0.692,0.902,-7.141,122.009,551.697
0.88,0.784,1.281,31.677,22.156,583.252
0.552,0.741,0.597,57.739,-111.511,621.643
0.27,0.519,0.446,83.008,-156.677,653.931
0.151,0.232,0.455,117.493,-167.053,662.476
0.051,0.143,0.451,141.235,-173.95,642.456
-0.038,0.109,0.538,154.175,-165.833,612.915
-0.202,0.096,0.657,163.452,-151.428,575.928
-0.288,0.059,0.719,167.908,-141.357,531.311
-0.393,0.026,0.778,150.818,-124.451,484.741
-0.56,-0.036,0.823,122.925,-97.107,438.965
-0.691,-0.043,0.824,87.341,-60.974,391.602
-0.783,0.026,0.782,46.875,-15.808,335.632
-0.798,0.193,0.704,9.644,32.41,273.621
-0.75,0.413,0.627,-20.447,81.238,213.196
-0.681,0.64,0.524,-41.565,126.526,160.339
-0.58,0.82,0.415,-52.673,168.457,120.3
-0.451,0.934,0.335,-55.603,206.726,91.248
-0.334,0.964,0.26,-47.363,237.671,70.007
-0.233,0.94,0.151,-29.541,259.399,54.871
-0.132,0.911,0.01,-3.357,272.095,43.03
-0.026,0.871,-0.129,30.64,277.71,34.729
0.078,0.79,-0.251,64.026,280.334,33.752
0.197,0.668,-0.382,92.896,282.959,39.429
0.335,0.498,-0.532,120.361,290.466,46.997
0.469,0.282,-0.662,145.081,301.758,51.575
0.6,0.034,-0.774,160.767,313.232,50.232
0.767,-0.226,-0.906,164.917,322.327,42.419
0.943,-0.463,-1.085,158.447,327.332,29.663
1.088,-0.64,-1.305,144.836,327.393,16.357
1.215,-0.741,-1.548,127.136,321.899,5.127
1.321,-0.767,-1.769,106.445,311.89,-3.174
1.43,-0.747,-1.96,88.806,295.349,-6.897
1.493,-0.707,-2.104,73.73,277.1,-3.174
1.629,-0.696,-2.164,61.646,260.864,4.761
1.53,-0.664,-2.063,55.054,243.591,6.409
1.65,-0.631,-1.938,55.969,222.046,3.052
1.649,-0.65,-1.75,57.129,199.036,-1.038
1.671,-0.524,-1.314,51.086,173.645,-6.653
1.621,-0.526,-0.754,42.847,121.277,-0.427
1.69,-0.717,-0.938,40.955,30.396,-1.404
1.315,-0.74,-1.187,47.791,-38.025,-13.184
1.183,-0.521,-1.156,40.344,-64.88,-11.78
1.15,-0.45,-1.184,24.841,-76.111,-4.333
1.154,-0.388,-1.042,15.869,-72.815,2.747
1.177,-0.582,-0.867,12.817,-72.083,16.113
0.998,-0.697,-0.827,8.484,-79.285,7.751
1.013,-0.567,-0.934,15.808,-79.712,-5.371
0.848,-0.584,-0.942,6.104,-59.814,-0.977
0.772,-0.635,-0.801,-12.329,-26.367,-15.32
0.902,-0.663,-0.661,-12.695,-1.282,-24.475
0.893,-0.585,-0.519,-15.869,12.085,-33.081
0.885,-0.558,-0.426,-19.104,14.099,-39.978
0.883,-0.523,-0.397,-21.057,8.423,-42.542
0.893,-0.434,-0.37,-23.254,2.747,-41.138
0.907,-0.336,-0.292,-23.743,-3.906,-33.386
0.89,-0.327,-0.264,-23.621,-18.372,-22.339
0.852,-0.4,-0.326,-20.63,-36.56,-13.55
0.79,-0.42,-0.41,-14.954,-48.218,-10.071
0.718,-0.369,-0.525,-10.986,-49.255,-7.629
0.708,-0.302,-0.575,-9.277,-38.269,-4.395
0.7,-0.276,-0.554,-8.423,-22.827,-0.732
0.717,-0.295,-0.536,-6.714,-12.573,1.709
0.737,-0.294,-0.519,-3.357,-7.69,0.61
0.719,-0.284,-0.524,-0.977,-6.348,-1.526
0.719,-0.265,-0.528,-1.282,-5.127,-4.333
0.738,-0.278,-0.499,-3.967,-2.869,-5.615
0.734,-0.289,-0.454,-6.958,-2.441,-7.568
0.795,-0.267,-0.41,-7.874,-7.019,-9.705
0.813,-0.236,-0.391,-8.972,-17.7,-9.216
0.792,-0.247,-0.418,-11.353,-30.518,-5.737
0.759,-0.249,-0.468,-12.146,-40.405,-3.296
0.782,-0.26,-0.516,-9.46,-44.739,-0.61
0.735,-0.251,-0.55,-5.859,-43.701,0.061
0.683,-0.281,-0.601,-2.563,-38.208,0.305
0.667,-0.318,-0.635,-1.709,-25.879,-2.197
0.67,-0.288,-0.631,-2.93,-8.301,-4.7
0.682,-0.253,-0.611,-3.967,9.46,-5.249
0.714,-0.239,-0.572,-2.625,23.01,-5.371
0.764,-0.236,-0.509,-0.854,31.067,-4.395
0.804,-0.253,-0.419,-0.183,33.447,-1.648
0.822,-0.285,-0.354,-0.671,27.222,0.244
0.836,-0.306,-0.35,0.0,12.329,-1.099
0.817,-0.302,-0.405,1.77,-4.395,-2.93
0.768,-0.297,-0.485,1.709,-15.991,-4.395
0.736,-0.305,-0.546,0.183,-18.372,-5.066
0.73,-0.316,-0.576,-2.014,-13.062,-5.554
0.728,-0.33,-0.576,-2.93,-4.395,-6.226
0.743,-0.328,-0.559,-3.418,4.761,-7.996
0.773,-0.311,-0.527,-2.319,12.634,-8.728
0.798,-0.293,-0.49,-0.671,16.724,-7.874
0.818,-0.291,-0.463,1.038,16.235,-5.371
0.824,-0.313,-0.449,1.587,12.024,-1.77
0.834,-0.339,-0.45,0.854,6.042,1.221
0.83,-0.367,-0.463,0.305,0.244,3.174
-1.368,-0.607,0.9,27.161,-65.308,42.175
-1.45,-0.647,0.879,34.546,-86.853,48.645
-1.487,-0.672,0.898,34.973,-103.699,59.937
-1.52,-0.676,0.953,35.034,-118.469,73.242
-1.552,-0.663,1.01,39.795,-135.254,84.717
-1.598,-0.67,0.999,47.668,-159.424,94.91
-1.642,-0.745,0.923,53.223,-184.265,106.079
-1.704,-0.867,0.858,51.697,-203.308,118.103
-1.801,-0.985,0.811,43.274,-213.501,131.042
-1.878,-1.092,0.774,30.945,-215.454,143.311
-1.877,-1.171,0.797,14.465,-208.923,150.879
-1.831,-1.177,0.757,-7.202,-197.449,157.227
-1.783,-1.153,0.668,-34.18,-179.749,172.852
-1.686,-1.094,0.603,-67.322,-153.809,201.782
-1.573,-0.953,0.524,-91.614,-120.911,236.694
-1.497,-0.797,0.396,-105.957,-85.571,270.325
-1.426,-0.685,0.225,-117.859,-49.194,308.655
-1.342,-0.579,0.065,-128.418,-9.094,345.459
-1.218,-0.464,-0.08,-135.864,36.072,373.596
-1.059,-0.33,-0.205,-137.817,81.787,397.217
-0.904,-0.171,-0.275,-133.24,125.183,417.48
-0.749,0.023,-0.277,-122.925,163.025,433.411
-0.578,0.178,-0.239,-101.196,191.467,446.96
-0.407,0.244,-0.156,-72.205,207.642,458.13
-0.218,0.231,-0.005,-47.913,212.036,467.468
0.026,0.225,0.241,-32.043,204.346,478.516
0.308,0.268,0.592,-18.86,174.927,493.53
0.669,0.344,1.099,-1.831,108.154,512.329
0.581,0.292,0.689,8.545,-8.057,536.133
0.282,0.254,0.326,6.775,-92.041,560.486
0.159,0.118,0.29,27.466,-118.286,572.449
0.11,0.124,0.272,62.012,-131.348,559.143
0.102,0.283,0.303,85.815,-135.254,541.199
0.079,0.399,0.392,105.591,-135.071,531.982
0.044,0.473,0.501,125.549,-135.132,522.644
-0.07,0.46,0.611,146.179,-135.071,512.146
-0.111,0.365,0.634,159.363,-130.066,495.728
-0.206,0.254,0.672,159.058,-110.291,469.238
-0.3,0.155,0.715,150.635,-77.515,436.157
-0.361,0.058,0.763,130.066,-37.415,394.287
-0.374,-0.029,0.782,100.83,2.563,342.529
-0.394,-0.05,0.767,65.369,37.476,285.034
-0.415,0.014,0.699,26.184,66.101,226.929
-0.453,0.118,0.557,-11.658,89.783,170.837
-0.503,0.22,0.351,-45.837,114.502,120.667
-0.491,0.294,0.161,-72.327,148.254,77.026
-0.39,0.363,0.042,-84.778,189.819,37.231
-0.243,0.467,-0.037,-79.041,227.6,3.113
-0.096,0.581,-0.08,-57.739,255.859,-20.386
0.076,0.695,-0.138,-27.527,275.391,-29.602
0.209,0.756,-0.192,10.559,289.307,-21.851
0.315,0.734,-0.246,53.04,298.889,-1.221
0.416,0.622,-0.332,97.656,301.27,22.4
0.496,0.446,-0.455,137.451,298.889,45.044
0.6,0.23,-0.594,168.579,297.241,62.866
0.714,0.004,-0.735,194.092,298.706,71.289
0.826,-0.191,-0.88,208.984,302.368,71.228
0.929,-0.346,-1.036,200.928,301.636,67.139
0.933,-0.458,-1.307,172.485,292.786,58.167
1.099,-0.595,-1.561,138.794,285.889,43.823
1.113,-0.66,-1.75,104.187,277.832,23.926
1.306,-0.673,-1.908,73.364,262.634,1.831
1.374,-0.68,-2.044,51.514,248.413,-18.188
1.31,-0.698,-2.092,37.964,244.751,-37.415
1.67,-0.562,-1.926,35.828,246.277,-57.068
1.672,-0.315,-1.715,38.391,236.633,-54.565
1.657,-0.443,-1.52,32.959,211.121,-35.156
1.483,-0.734,-1.641,26.306,175.232,-35.828
1.541,-0.717,-1.263,32.776,149.963,-46.631
1.408,-0.513,-1.265,34.851,107.117,-41.199
1.357,-0.492,-1.112,34.607,68.115,-31.067
1.309,-0.47,-0.917,31.006,22.949,-12.024
1.452,-0.658,-0.889,34.302,-28.015,7.69
1.23,-0.72,-0.955,38.452,-68.237,12.512
0.905,-0.737,-1.064,40.71,-84.106,18.433
0.901,-0.913,-1.134,33.63,-75.562,18.982
0.81,-0.918,-1.091,25.696,-45.105,-4.089
0.803,-0.82,-0.966,20.386,-7.996,-19.958
0.833,-0.699,-0.805,6.775,21.667,-30.762
0.909,-0.637,-0.628,-3.784,37.903,-39.856
0.979,-0.59,-0.432,-9.705,36.987,-41.626
1.009,-0.539,-0.271,-16.235,17.456,-38.696
1.019,-0.525,-0.218,-23.071,-16.968,-32.41
0.954,-0.527,-0.292,-27.771,-55.725,-25.818
0.861,-0.507,-0.427,-28.809,-85.388,-20.691
0.763,-0.45,-0.566,-26.184,-97.412,-16.296
0.697,-0.381,-0.644,-21.973,-92.163,-11.414
0.64,-0.352,-0.668,-17.944,-75.439,-5.981
0.628,-0.357,-0.664,-14.893,-53.467,-1.587
0.639,-0.373,-0.656,-10.986,-31.128,0.793
0.618,-0.363,-0.639,-7.874,-11.047,1.038
0.656,-0.314,-0.58,-6.042,4.578,0.122
0.726,-0.319,-0.543,-2.991,12.268,0.305
0.674,-0.316,-0.55,-2.502,11.658,-1.221
0.72,-0.31,-0.515,-1.526,9.216,-3.723
0.789,-0.244,-0.44,-2.197,2.93,-3.662
0.791,-0.246,-0.443,-6.531,-11.414,0.427
0.773,-0.258,-0.493,-8.789,-28.137,1.648
0.716,-0.263,-0.59,-8.362,-41.016,3.906
0.681,-0.276,-0.67,-10.559,-43.335,4.272
0.636,-0.294,-0.697,-12.634,-35.461,2.258
0.615,-0.313,-0.689,-14.038,-21.667,-1.648
0.628,-0.314,-0.656,-15.137,-7.385,-7.019
0.646,-0.297,-0.602,-15.381,4.822,-12.207
0.673,-0.277,-0.546,-16.174,13.123,-15.564
0.714,-0.253,-0.501,-17.151,15.869,-15.93
0.744,-0.229,-0.478,-16.235,12.817,-12.756
0.755,-0.216,-0.481,-11.475,6.042,-7.629
0.753,-0.21,-0.511,-6.531,-2.014,-1.221
0.738,-0.219,-0.558,-1.221,-8.972,4.761
0.714,-0.259,-0.6,4.456,-13.062,8.118
0.705,-0.307,-0.62,6.958,-13.428,9.094
0.698,-0.351,-0.614,6.47,-10.864,7.385
0.689,-0.378,-0.591,4.456,-7.019,3.174
0.69,-0.386,-0.561,1.282,-3.967,-2.563
0.696,-0.381,-0.53,-3.723,-1.709,-7.812
0.705,-0.369,-0.505,-9.094,-0.305,-12.512
0.713,-0.355,-0.492,-13.733,0.366,-15.686
0.721,-0.34,-0.493,-15.869,0.671,-17.517
-1.437,-0.743,0.7,33.264,-57.861,62.988
-1.554,-0.814,0.709,35.583,-77.942,74.402
-1.645,-0.87,0.733,37.903,-95.825,82.947
-1.696,-0.919,0.767,38.513,-108.765,88.989
-1.725,-0.967,0.808,37.537,-121.521,91.858
-1.757,-1.027,0.831,35.339,-137.268,91.736
-1.776,-1.116,0.878,28.442,-156.25,92.041
-1.812,-1.173,0.798,19.897,-177.612,96.68
-1.843,-1.2,0.693,8.545,-190.857,106.934
-1.812,-1.205,0.666,-5.493,-186.462,124.207
-1.709,-1.175,0.687,-23.621,-171.082,149.292
-1.589,-1.077,0.615,-46.082,-150.024,177.307
-1.461,-0.893,0.489,-65.552,-117.615,211.853
-1.418,-0.691,0.392,-75.073,-73.12,255.432
-1.364,-0.591,0.345,-88.623,-23.682,307.739
-1.217,-0.558,0.231,-102.783,17.09,353.699
-1.065,-0.524,0.091,-109.924,51.514,386.169
-0.931,-0.419,-0.025,-111.023,84.229,413.635
-0.818,-0.291,-0.118,-105.774,111.755,437.073
-0.708,-0.131,-0.172,-97.717,135.071,452.759
-0.564,0.042,-0.164,-84.9,155.09,466.187
-0.4,0.156,-0.086,-62.561,166.687,480.225
-0.23,0.205,0.055,-44.128,166.382,494.202
-0.016,0.243,0.278,-34.119,154.907,511.536
0.229,0.28,0.595,-17.822,124.023,533.691
0.518,0.331,1.001,6.836,58.777,555.664
0.497,0.29,0.728,25.757,-44.861,579.346
0.268,0.242,0.415,32.776,-124.634,602.417
0.169,0.12,0.404,52.612,-152.344,616.638
0.078,0.089,0.419,85.266,-167.053,609.741
0.01,0.164,0.439,109.192,-174.255,594.116
-0.04,0.169,0.505,126.526,-174.255,581.055
-0.122,0.13,0.598,139.16,-167.542,561.951
-0.235,0.063,0.658,149.536,-156.982,535.156
-0.302,0.015,0.661,147.156,-136.841,500.977
-0.385,0.004,0.682,135.498,-102.6,460.937
-0.453,-0.018,0.738,122.375,-62.622,417.053
-0.488,-0.026,0.793,98.145,-25.696,367.004
-0.523,-0.006,0.782,65.552,5.676,311.462
-0.571,0.063,0.672,28.381,36.072,254.944
-0.605,0.16,0.501,-9.766,70.923,200.439
-0.599,0.249,0.318,-45.044,113.647,147.034
-0.515,0.342,0.167,-71.533,163.757,97.229
-0.383,0.447,0.038,-83.801,214.661,52.246
-0.236,0.558,-0.083,-84.167,259.277,17.883
-0.066,0.656,-0.157,-75.5,296.814,-1.892
0.122,0.736,-0.208,-51.819,323.242,-10.681
0.241,0.788,-0.263,-14.038,334.656,-9.644
0.339,0.753,-0.334,25.085,335.51,2.625
0.442,0.619,-0.423,63.66,330.994,19.897
0.482,0.468,-0.543,102.539,324.402,34.729
0.51,0.297,-0.717,133.606,319.275,47.058
0.607,0.036,-0.831,151.062,321.228,53.711
0.702,-0.128,-0.966,159.485,324.768,45.654
0.858,-0.247,-1.039,159.729,323.547,34.607
0.939,-0.48,-1.177,145.325,311.707,17.822
0.944,-0.431,-1.493,127.319,297.241,-11.292
1.231,-0.391,-1.6,111.572,290.039,-26.306
1.384,-0.365,-1.641,86.609,274.841,-31.982
1.515,-0.423,-1.71,67.81,247.62,-35.034
1.594,-0.44,-1.812,61.218,215.149,-33.691
1.603,-0.424,-1.924,59.082,179.565,-27.039
1.578,-0.431,-2.06,57.373,149.414,-23.193
1.481,-0.464,-2.131,60.242,136.536,-22.461
1.503,-0.496,-2.016,57.434,140.32,-23.56
1.442,-0.523,-1.649,42.297,142.395,-26.611
1.661,-0.64,-1.338,30.518,120.728,-27.649
1.512,-0.585,-1.026,30.701,78.308,-30.09
1.467,-0.644,-0.846,36.438,19.104,-25.94
1.37,-0.641,-0.869,32.837,-45.41,-22.461
1.194,-0.717,-0.942,27.1,-89.111,-20.081
1.041,-0.724,-0.977,17.151,-106.262,-19.836
0.977,-0.716,-0.997,8.484,-104.797,-21.484
0.887,-0.697,-0.971,0.122,-90.515,-25.33
0.777,-0.707,-0.888,-6.958,-69.458,-30.212
0.787,-0.738,-0.831,-10.742,-47.729,-38.513
0.757,-0.657,-0.692,-11.292,-25.94,-48.401
0.826,-0.588,-0.554,-13.367,-11.108,-50.476
0.844,-0.497,-0.402,-17.029,-7.324,-50.842
0.837,-0.498,-0.334,-20.264,-14.038,-42.542
0.792,-0.533,-0.327,-23.621,-24.048,-36.133
0.776,-0.515,-0.362,-22.461,-31.006,-32.532
0.748,-0.463,-0.383,-20.447,-32.166,-27.039
0.743,-0.421,-0.414,-21.606,-30.273,-19.897
0.747,-0.401,-0.437,-20.447,-26.672,-12.878
0.723,-0.384,-0.454,-17.09,-21.423,-5.066
0.718,-0.374,-0.476,-13.0,-16.541,0.122
0.719,-0.355,-0.487,-7.812,-11.475,3.174
0.72,-0.34,-0.497,-4.333,-7.019,5.493
0.718,-0.34,-0.515,-3.418,-4.944,6.592
0.711,-0.339,-0.541,-5.432,-5.005,6.042
0.706,-0.326,-0.56,-6.409,-6.897,3.235
0.713,-0.307,-0.567,-7.263,-9.033,-0.427
0.719,-0.303,-0.565,-8.972,-10.803,-3.296
0.724,-0.308,-0.561,-10.803,-12.085,-5.981
0.734,-0.309,-0.555,-12.939,-13.855,-8.179
0.735,-0.298,-0.557,-14.832,-15.869,-9.644
0.73,-0.289,-0.567,-16.235,-17.334,-9.583
0.722,-0.278,-0.576,-16.785,-17.334,-8.728
0.714,-0.266,-0.578,-15.869,-16.174,-7.507
0.702,-0.263,-0.569,-14.343,-14.343,-6.653
0.699,-0.275,-0.561,-13.123,-12.024,-5.737
0.699,-0.289,-0.542,-12.207,-9.644,-5.188
0.711,-0.285,-0.513,-10.925,-7.996,-4.456
0.734,-0.265,-0.493,-8.118,-8.667,-2.93
0.73,-0.243,-0.477,-3.784,-11.963,-0.916
0.732,-0.261,-0.485,-0.366,-15.991,1.953
0.69,-0.322,-0.517,1.099,-18.188,4.517
0.687,-0.334,-0.501,1.77,-15.747,3.845
0.705,-0.335,-0.485,0.854,-12.573,4.333
0.689,-0.333,-0.502,-2.38,-10.193,3.845
0.705,-0.3,-0.508,-4.456,-6.165,4.211
0.704,-0.298,-0.508,-7.141,-1.77,6.958
0.7,-0.322,-0.512,-9.705,1.526,7.019
0.704,-0.341,-0.514,-8.789,4.456,5.859
0.709,-0.339,-0.52,-7.507,8.118,3.784
0.728,-0.325,-0.524,-6.653,11.169,1.648
0.745,-0.303,-0.52,-4.089,12.39,0.366
0.772,-0.279,-0.508,0.244,11.963,0.671
-1.408,-0.903,0.786,71.716,-96.924,86.487
-1.573,-1.1,0.825,71.899,-126.038,111.145
-1.73,-1.162,0.874,63.477,-143.311,124.634
-1.824,-1.156,0.88,55.603,-151.306,126.282
-1.785,-1.182,0.959,46.631,-153.137,127.93
-1.758,-1.21,0.969,38.269,-159.607,130.981
-1.749,-1.285,0.96,34.546,-173.462,137.207
-1.775,-1.335,0.882,28.809,-194.031,143.921
-1.751,-1.398,0.793,13.855,-209.717,155.762
-1.735,-1.386,0.673,-8.24,-216.614,174.5
-1.684,-1.409,0.579,-33.63,-208.801,200.562
-1.583,-1.36,0.507,-60.364,-192.932,227.966
-1.461,-1.223,0.337,-79.407,-168.457,255.615
-1.404,-1.056,0.13,-95.093,-132.629,289.368
-1.382,-0.876,0.004,-115.54,-81.604,335.815
-1.315,-0.703,-0.069,-131.836,-26.978,378.113
-1.177,-0.545,-0.167,-131.714,24.902,411.133
-1.023,-0.334,-0.23,-124.695,76.294,442.2
-0.885,-0.102,-0.211,-114.99,121.216,471.375
-0.709,0.112,-0.144,-101.135,156.189,497.192
-0.493,0.253,-0.033,-79.346,174.744,523.437
-0.314,0.336,0.123,-50.903,176.27,546.692
-0.14,0.424,0.354,-22.949,162.72,569.092
0.067,0.526,0.637,4.028,128.418,596.13
0.264,0.561,0.894,35.278,65.796,624.146
0.363,0.5,0.922,66.589,-20.203,645.691
0.267,0.4,0.673,93.872,-105.164,658.63
0.142,0.239,0.532,118.713,-154.724,659.302
0.015,0.121,0.452,139.832,-183.289,646.912
-0.092,0.073,0.392,152.161,-199.463,624.573
-0.284,0.035,0.445,159.485,-198.059,593.079
-0.397,-0.01,0.503,163.208,-187.5,550.537
-0.499,-0.015,0.562,152.954,-164.917,502.197
-0.616,-0.003,0.62,135.62,-131.226,454.285
-0.734,0.017,0.65,113.464,-90.454,402.039
-0.818,0.025,0.642,82.397,-41.87,344.177
-0.822,0.033,0.612,42.297,11.902,283.386
-0.78,0.065,0.55,0.732,64.392,219.238
-0.728,0.178,0.413,-39.612,111.145,152.771
-0.641,0.345,0.235,-77.271,156.006,92.712
-0.533,0.523,0.043,-106.14,202.209,43.518
-0.383,0.657,-0.118,-118.774,248.596,4.456
-0.186,0.734,-0.201,-111.877,290.771,-24.414
0.029,0.807,-0.27,-87.097,321.655,-44.006
0.179,0.925,-0.384,-48.096,338.257,-50.537
0.308,1.008,-0.522,-0.366,345.642,-39.978
0.434,0.956,-0.635,51.819,347.656,-17.822
0.559,0.793,-0.727,102.905,344.482,6.592
0.7,0.569,-0.815,146.606,338.745,30.396
0.858,0.273,-0.891,179.504,333.74,48.34
0.977,-0.054,-1.0,200.134,326.66,51.88
1.086,-0.202,-1.198,206.543,317.139,40.833
1.23,-0.286,-1.283,190.918,309.998,32.227
1.324,-0.283,-1.483,156.677,295.532,24.536
1.47,-0.38,-1.724,120.911,276.489,22.095
1.442,-0.518,-1.926,88.562,259.277,16.907
1.392,-0.619,-2.028,61.646,245.911,6.958
1.733,-0.449,-2.002,42.297,230.469,-8.179
1.698,-0.408,-1.895,26.794,204.468,-8.972
1.508,-0.507,-1.918,9.277,165.833,-11.108
1.256,-0.809,-2.221,10.864,140.076,-30.334
1.356,-0.69,-1.846,13.672,155.334,-59.387
1.313,-0.644,-1.474,4.883,157.104,-76.843
1.383,-0.48,-1.096,6.836,133.606,-87.83
1.342,-0.415,-0.921,17.7,91.309,-72.205
1.365,-0.376,-0.722,18.433,42.175,-45.288
1.219,-0.548,-0.632,19.165,-13.062,-14.771
1.11,-0.732,-0.681,21.729,-69.153,0.549
1.011,-0.825,-0.79,24.841,-111.328,4.822
0.877,-0.824,-0.897,23.193,-129.211,-0.549
0.749,-0.788,-0.977,15.869,-125.916,-7.874
0.666,-0.757,-1.014,5.859,-105.225,-16.235
0.61,-0.714,-1.003,-3.235,-73.853,-25.513
0.589,-0.684,-0.941,-9.155,-37.781,-34.363
0.619,-0.629,-0.82,-14.404,-2.075,-42.358
0.713,-0.539,-0.632,-18.25,26.367,-45.166
0.839,-0.43,-0.418,-21.179,37.964,-39.673
0.924,-0.358,-0.244,-22.522,27.527,-26.611
0.951,-0.314,-0.153,-22.705,-3.235,-9.827
0.936,-0.359,-0.251,-19.287,-45.471,7.935
0.753,-0.418,-0.456,-14.893,-80.383,19.104
0.73,-0.406,-0.553,-10.498,-93.079,22.461
0.673,-0.419,-0.68,-8.24,-90.454,23.437
0.591,-0.365,-0.792,-8.606,-74.585,18.86
0.572,-0.284,-0.852,-6.409,-46.875,15.076
0.589,-0.248,-0.859,-5.127,-17.151,12.817
0.615,-0.262,-0.777,-6.042,9.644,6.714
0.676,-0.302,-0.665,-4.211,28.015,0.854
0.729,-0.333,-0.555,-2.075,35.339,-6.958
0.767,-0.327,-0.467,-2.136,31.799,-16.357
0.803,-0.288,-0.417,-4.944,18.982,-21.545
0.802,-0.254,-0.424,-10.193,1.16,-21.79
0.774,-0.24,-0.474,-14.832,-15.991,-19.287
0.731,-0.243,-0.545,-17.212,-29.053,-14.526
0.692,-0.244,-0.605,-18.311,-33.997,-10.498
0.658,-0.254,-0.649,-17.822,-31.677,-8.24
0.64,-0.263,-0.664,-16.602,-23.376,-6.775
0.634,-0.268,-0.655,-15.93,-12.329,-5.859
0.644,-0.273,-0.625,-14.587,-2.93,-6.042
0.665,-0.273,-0.591,-11.169,2.563,-7.935
0.686,-0.27,-0.568,-7.812,4.15,-9.338
0.701,-0.266,-0.56,-5.676,3.296,-10.254
0.709,-0.263,-0.559,-3.662,1.343,-10.376
0.712,-0.274,-0.566,-2.258,-1.465,-10.254
0.711,-0.287,-0.581,-2.197,-3.357,-9.46
0.712,-0.298,-0.596,-2.502,-2.747,-8.301
0.713,-0.305,-0.596,-3.296,-0.122,-6.836
0.719,-0.309,-0.584,-5.005,2.197,-5.005
0.724,-0.314,-0.565,-6.653,3.723,-2.93
0.716,-0.324,-0.547,-7.996,3.967,-1.465
0.712,-0.34,-0.539,-8.85,2.686,-1.404
0.699,-0.36,-0.536,-10.437,1.221,-1.77
0.688,-0.378,-0.533,-13.55,0.488,-2.686
0.684,-0.381,-0.532,-17.09,0.305,-4.272
0.677,-0.373,-0.533,-19.287,0.549,-5.676
0.676,-0.356,-0.542,-19.958,1.038,-6.775
0.681,-0.339,-0.555,-19.531,2.258,-6.775
0.687,-0.329,-0.562,-17.639,4.028,-6.348
0.694,-0.333,-0.561,-15.076,6.348,-5.188
-1.065,-0.939,0.963,7.751,-87.891,11.597
-1.171,-1.057,0.994,12.207,-125.977,20.447
-1.254,-1.113,1.063,8.972,-160.278,26.55
-1.316,-1.091,1.109,3.784,-191.711,30.09
-1.381,-1.039,1.111,1.221,-223.022,34.729
-1.445,-1.015,1.062,-1.099,-250.549,40.1
-1.516,-0.992,0.938,-7.141,-268.555,46.936
-1.581,-0.977,0.82,-14.038,-270.813,58.167
-1.599,-0.954,0.772,-19.47,-257.629,75.012
-1.587,-0.95,0.778,-26.245,-238.953,95.703
-1.535,-0.989,0.792,-38.33,-221.802,122.314
-1.482,-0.967,0.741,-54.199,-204.407,150.635
-1.398,-0.853,0.647,-68.909,-181.458,180.908
-1.301,-0.697,0.554,-78.064,-148.865,215.576
-1.223,-0.535,0.435,-80.322,-109.68,251.892
-1.168,-0.425,0.34,-79.468,-65.918,292.603
-1.085,-0.371,0.281,-78.613,-21.851,331.238
-0.952,-0.328,0.216,-77.637,17.456,358.948
-0.803,-0.25,0.155,-73.425,50.781,380.188
-0.676,-0.153,0.12,-66.162,78.674,399.719
-0.549,-0.067,0.112,-56.396,98.816,417.297
-0.427,-0.013,0.137,-41.504,110.535,430.542
-0.318,0.026,0.185,-23.682,116.272,439.697
-0.22,0.072,0.246,-6.287,116.15,446.289
-0.13,0.137,0.325,9.033,109.68,450.317
-0.038,0.206,0.4,21.362,96.497,454.834
0.045,0.258,0.468,32.715,75.989,464.05
0.097,0.271,0.515,46.204,48.767,474.792
0.129,0.302,0.541,62.439,17.212,486.389
0.115,0.295,0.525,87.036,-12.207,496.216
0.071,0.286,0.493,109.985,-38.025,503.235
0.009,0.312,0.474,132.141,-58.594,509.644
-0.044,0.309,0.47,157.288,-69.092,513.672
-0.122,0.302,0.487,178.589,-67.017,514.648
-0.163,0.234,0.485,194.458,-56.335,510.437
-0.171,0.151,0.47,195.374,-37.354,498.291
-0.223,0.034,0.472,185.852,-10.071,478.821
-0.285,-0.059,0.478,162.415,21.973,453.003
-0.343,-0.108,0.448,133.057,55.054,418.701
-0.412,-0.132,0.394,102.051,88.318,375.061
-0.455,-0.137,0.312,62.622,120.178,326.355
-0.462,-0.12,0.181,16.907,148.743,275.635
-0.445,-0.071,0.023,-29.114,177.551,223.755
-0.416,-0.018,-0.105,-69.031,209.412,170.349
-0.333,0.046,-0.237,-100.83,242.859,119.873
-0.21,0.147,-0.364,-122.253,278.076,74.585
-0.108,0.269,-0.46,-128.723,313.904,36.377
0.007,0.398,-0.529,-120.3,347.473,8.728
0.164,0.52,-0.594,-96.191,373.657,-7.751
0.318,0.641,-0.673,-59.692,390.747,-11.475
0.42,0.688,-0.764,-16.235,397.888,-1.099
0.484,0.667,-0.93,23.926,397.278,20.63
0.626,0.471,-1.121,59.021,393.311,49.927
0.783,0.08,-1.382,89.783,384.46,70.251
1.046,-0.101,-1.609,118.652,365.723,66.895
1.296,-0.212,-1.726,146.973,329.59,68.726
1.406,-0.276,-1.757,150.452,270.325,73.608
1.47,-0.421,-1.922,135.803,204.529,69.275
1.196,-0.56,-2.58,124.268,169.434,65.125
1.041,-0.85,-2.965,94.238,232.666,63.599
1.384,-0.724,-2.276,12.207,316.345,15.015
1.764,-0.833,-1.893,-28.198,324.219,-30.09
1.695,-0.743,-1.797,-33.02,274.78,-65.857
1.534,-0.624,-1.731,-26.489,209.29,-88.684
1.477,-0.137,-1.66,-18.799,146.179,-91.37
1.457,-0.019,-1.615,-18.738,93.018,-55.542
1.229,-0.273,-1.511,-39.49,53.406,-12.146
1.061,-0.628,-1.4,-36.743,22.461,5.676
1.003,-0.873,-1.293,-15.869,-2.319,14.465
0.909,-0.914,-1.191,-2.563,-20.203,0.0
0.839,-0.831,-1.089,6.104,-30.457,-20.264
0.842,-0.72,-0.968,1.465,-34.973,-31.494
0.84,-0.657,-0.833,-14.16,-37.598,-33.203
0.796,-0.638,-0.724,-30.273,-42.908,-30.334
0.752,-0.653,-0.669,-40.222,-52.551,-27.039
0.729,-0.681,-0.644,-42.908,-63.11,-28.015
0.649,-0.579,-0.668,-39.551,-73.181,-33.569
0.689,-0.487,-0.685,-35.034,-79.712,-32.104
0.647,-0.34,-0.691,-31.128,-81.543,-26.917
0.61,-0.336,-0.682,-24.536,-79.956,-15.198
0.645,-0.353,-0.642,-17.395,-75.989,-6.592
0.631,-0.452,-0.632,-10.62,-71.838,1.709
0.543,-0.497,-0.696,-7.141,-65.369,0.0
0.52,-0.365,-0.711,-2.93,-50.659,-4.15
0.543,-0.269,-0.716,-2.136,-31.433,2.197
0.551,-0.261,-0.695,-5.737,-13.123,7.08
0.571,-0.318,-0.667,-6.042,-0.427,10.193
0.576,-0.378,-0.653,-5.31,6.409,12.695
0.562,-0.399,-0.647,-3.967,9.094,7.812
0.573,-0.363,-0.653,-2.625,8.789,-0.366
0.59,-0.321,-0.665,-5.92,7.812,-4.578
0.589,-0.296,-0.67,-11.841,6.531,-6.042
0.595,-0.283,-0.666,-16.052,3.967,-6.165
0.605,-0.273,-0.66,-18.25,-0.549,-5.859
0.605,-0.266,-0.66,-18.555,-7.263,-6.592
0.594,-0.269,-0.668,-17.517,-15.747,-7.446
0.579,-0.283,-0.68,-16.663,-23.193,-7.935
0.575,-0.289,-0.686,-16.541,-28.32,-8.362
0.568,-0.281,-0.694,-15.686,-30.273,-9.094
0.553,-0.276,-0.701,-12.512,-30.09,-9.583
0.543,-0.286,-0.707,-9.949,-28.381,-9.46
0.536,-0.3,-0.705,-9.399,-24.841,-9.094
0.53,-0.312,-0.697,-9.888,-19.897,-7.874
0.527,-0.318,-0.689,-9.888,-14.587,-7.141
0.536,-0.316,-0.682,-9.216,-9.827,-6.165
0.541,-0.309,-0.673,-8.362,-5.676,-4.639
0.545,-0.304,-0.671,-7.202,-2.136,-3.357
0.55,-0.306,-0.673,-4.272,0.732,-2.197
0.559,-0.315,-0.678,-0.854,2.991,-0.549
0.569,-0.321,-0.681,1.282,5.615,1.404
0.577,-0.328,-0.675,3.052,7.874,3.235
0.587,-0.338,-0.667,3.357,9.033,4.517
0.596,-0.351,-0.658,2.441,9.216,4.761
0.602,-0.365,-0.65,1.16,7.568,4.089
0.606,-0.374,-0.644,-0.854,5.066,2.686
0.605,-0.378,-0.639,-3.174,2.258,0.488
0.606,-0.37,-0.642,-5.127,-0.244,-1.892
0.61,-0.355,-0.652,-5.066,-2.991,-3.357
0.615,-0.34,-0.66,-3.418,-4.761,-4.272
-1.021,-1.163,0.915,43.152,-115.234,49.377
-1.152,-1.275,0.954,55.359,-142.212,67.444
-1.254,-1.422,0.985,64.148,-168.274,85.815
-1.332,-1.605,1.016,69.275,-190.796,102.112
-1.361,-1.743,1.003,62.988,-207.703,109.985
-1.371,-1.78,0.966,47.363,-217.224,110.168
-1.345,-1.715,0.935,22.766,-214.966,109.192
-1.3,-1.631,0.905,-3.54,-207.031,109.741
-1.275,-1.511,0.891,-28.687,-197.876,114.258
-1.239,-1.364,0.865,-51.941,-189.575,130.066
-1.198,-1.168,0.789,-71.167,-179.871,157.104
