aX,aY,aZ,gX,gY,gZ
0.879,-1.707,0.644,180.237,-162.415,111.816
1.571,-2.044,0.182,203.674,-263.123,160.4
2.021,-2.504,-0.067,199.28,-380.554,212.769
2.218,-2.982,-0.194,159.668,-532.776,259.766
2.42,-3.031,-0.815,110.168,-721.985,276.184
2.325,-2.718,-1.54,82.092,-895.874,274.353
2.199,-2.515,-2.124,64.392,-1025.513,279.846
2.264,-2.488,-2.64,51.208,-1101.501,314.697
1.875,-2.313,-3.135,38.33,-1094.543,367.981
0.751,-2.095,-3.458,35.156,-977.173,385.925
0.003,-1.899,-2.767,36.56,-773.743,353.638
0.213,-1.569,-1.676,24.048,-585.754,321.533
0.354,-1.268,-0.879,17.456,-487.061,281.189
0.163,-0.86,-0.544,6.287,-480.103,238.892
-0.015,-0.537,-0.593,-5.127,-521.24,218.14
-0.223,-0.481,-0.798,-15.442,-563.721,214.294
-0.484,-0.57,-1.041,-26.917,-584.045,211.914
-0.749,-0.652,-1.332,-23.315,-587.28,192.627
-1.043,-0.699,-1.499,-7.202,-574.585,151.428
-1.35,-0.627,-1.396,7.874,-541.26,109.314
-1.576,-0.511,-1.081,19.287,-501.221,83.313
-1.725,-0.433,-0.792,23.499,-470.886,77.82
-3.295,0.402,0.098,47.668,-454.712,91.492
-4.0,1.555,-2.353,238.953,-385.132,184.692
-4.0,0.021,-1.063,262.39,-71.35,412.109
-3.664,-4.0,0.383,-63.904,68.604,558.899
-0.416,-4.0,-0.966,-284.973,-5.92,288.025
0.223,-2.087,-1.325,-191.101,-50.72,-162.109
0.028,-0.492,-0.283,15.991,-30.884,-418.152
1.053,1.204,-0.245,37.109,7.874,-521.179
0.629,1.036,0.173,44.25,55.42,-407.715
0.181,0.131,0.823,-11.475,111.206,-150.94
0.597,-1.527,1.059,-4.822,82.336,13.916
0.76,-2.452,0.734,22.888,3.845,8.972
0.31,-2.264,0.469,28.625,-49.316,-61.279
0.214,-1.475,0.266,22.522,-61.89,-104.187
0.435,-0.797,0.225,5.31,-42.542,-116.394
0.513,-0.419,0.299,3.296,-20.081,-89.355
0.305,-0.151,0.389,1.099,-9.033,-23.315
0.187,-0.192,0.458,-2.319,-11.902,61.829
-0.129,-1.005,0.745,-2.93,-26.123,120.117
-0.083,-1.607,0.565,9.033,-66.711,82.092
-0.68,-1.006,0.702,24.048,-109.436,12.756
-1.026,-0.41,0.413,8.301,-128.662,11.658
-1.09,-0.558,-0.119,-13.306,-130.127,35.767
-1.138,-1.035,-0.395,-14.404,-68.237,43.579
-1.004,-1.322,-0.095,-16.296,21.057,35.217
-0.552,-1.381,0.176,-16.235,69.458,8.057
-0.32,-1.16,0.272,-10.803,73.73,-34.607
-0.304,-0.844,0.267,-9.888,64.636,-59.143
-0.224,-0.705,0.248,-10.62,58.35,-52.917
-0.128,-0.782,0.279,-9.583,58.594,-33.142
-0.052,-0.958,0.365,-6.592,55.359,-13.855
-0.003,-1.064,0.393,-3.357,38.879,-3.845
-0.015,-1.152,0.445,-2.625,15.564,-0.916
-0.095,-1.178,0.442,-1.953,-10.742,-7.446
-0.188,-1.118,0.349,-4.028,-36.255,-12.939
-0.312,-1.02,0.248,-7.507,-47.974,-13.184
-0.41,-0.941,0.182,-10.01,-41.443,-7.812
-0.434,-0.932,0.182,-10.742,-21.851,-0.854
-0.408,-0.952,0.239,-10.986,0.916,2.319
-0.36,-0.943,0.308,-11.047,17.7,-0.488
-0.315,-0.897,0.353,-9.949,24.658,-9.705
-0.263,-0.832,0.374,-8.24,24.719,-20.142
-0.218,-0.787,0.387,-6.042,21.545,-26.367
-0.188,-0.763,0.394,-4.333,15.808,-27.588
-0.19,-0.744,0.384,-2.075,8.057,-25.391
-0.204,-0.757,0.363,0.183,0.61,-19.714
-0.214,-0.827,0.372,0.732,-3.601,-12.146
-0.234,-0.864,0.361,1.953,-8.24,-6.958
-0.301,-0.834,0.34,2.197,-12.817,-0.916
-0.278,-0.819,0.349,1.465,-12.939,8.972
-0.378,-0.874,0.349,0.732,-12.512,16.235
-0.202,-1.008,0.35,0.671,-13.733,24.658
-0.459,-0.884,0.239,-1.099,-14.832,23.376
-0.307,-1.024,0.236,-3.723,-5.615,28.442
-0.342,-1.235,0.503,-1.282,11.108,16.907
-0.329,-1.064,0.409,3.54,-5.615,-15.259
-0.286,-0.914,0.328,0.732,-14.465,-24.963
-0.379,-0.821,0.259,-5.188,-9.155,-26.611
-0.325,-0.904,0.239,-5.676,3.052,-17.212
-0.305,-0.992,0.249,-2.686,16.663,-12.512
-0.26,-1.056,0.319,-2.625,26.794,-10.559
-0.231,-1.063,0.374,-4.456,28.198,-12.085
-0.212,-0.979,0.388,-4.822,20.386,-16.541
-0.214,-0.878,0.385,-5.615,8.85,-15.747
-0.213,-0.862,0.392,-6.226,-1.892,-10.559
-0.224,-0.867,0.381,-5.798,-12.512,-5.798
-0.249,-0.863,0.339,-5.066,-22.156,-1.648
-0.295,-0.854,0.312,-4.944,-26.001,2.014
-0.326,-0.871,0.296,-3.723,-24.719,4.211
-0.344,-0.912,0.299,-1.953,-19.47,2.808
-0.357,-0.94,0.315,-1.16,-12.939,-1.404
-0.352,-0.936,0.322,-1.282,-6.714,-6.775
-0.334,-0.905,0.323,-1.648,-2.197,-12.512
-0.315,-0.866,0.328,-1.465,1.282,-15.808
-0.297,-0.845,0.341,-1.343,2.869,-15.442
-0.29,-0.845,0.347,-1.282,1.831,-13.0
-0.287,-0.863,0.345,-0.916,-0.366,-8.606
-0.289,-0.892,0.325,-0.549,-2.808,-5.31
-0.284,-0.922,0.31,-1.099,-3.357,-2.625
-0.278,-0.933,0.302,-1.709,-1.404,0.366
-0.267,-0.934,0.31,-2.563,1.953,4.7
-0.263,-0.93,0.335,-3.845,5.127,10.254
-0.266,-0.931,0.365,-4.761,6.348,15.625
-0.267,-0.942,0.387,-5.371,5.066,19.348
-0.271,-0.95,0.394,-5.798,1.526,19.958
-0.279,-0.941,0.387,-5.92,-2.93,17.517
-0.294,-0.922,0.366,-5.554,-7.202,12.512
-0.312,-0.907,0.346,-4.517,-9.705,6.226
-0.327,-0.904,0.328,-3.174,-9.46,0.183
-0.333,-0.912,0.32,-1.709,-7.019,-4.578
-0.328,-0.925,0.321,-0.61,-4.089,-7.935
-0.318,-0.933,0.331,-0.61,-1.404,-10.071
-0.307,-0.93,0.34,-0.793,-0.061,-11.108
-0.3,-0.915,0.342,-1.221,-0.183,-11.719
-0.29,-0.908,0.338,-1.709,-0.793,-10.925
-0.289,-0.907,0.337,-2.869,-1.465,-8.972
-0.296,-0.899,0.335,-2.991,-1.526,-6.409
0.865,-1.676,0.296,-43.335,-52.551,16.418
1.229,-1.826,-0.042,-39.001,-131.897,52.429
1.477,-2.085,-0.311,-23.621,-225.464,109.131
1.717,-2.306,-0.573,-9.949,-329.895,169.617
2.161,-2.396,-1.088,27.954,-472.839,202.82
2.361,-2.498,-1.495,66.711,-614.014,222.229
2.362,-2.747,-1.672,58.044,-718.384,247.437
2.567,-2.929,-1.954,26.611,-819.824,266.296
2.633,-2.754,-2.282,-1.404,-916.077,272.095
2.31,-2.241,-2.485,-32.349,-985.901,267.273
1.717,-1.547,-2.577,-60.974,-1018.555,251.099
1.044,-0.891,-2.59,-65.613,-1005.859,244.812
0.441,-0.45,-2.666,-49.194,-948.914,254.15
-0.177,-0.111,-2.598,-35.278,-851.501,280.212
-0.79,0.039,-2.241,-31.677,-727.356,317.505
-1.293,-0.04,-1.557,-24.719,-615.601,360.962
-1.687,-0.21,-0.847,-2.441,-551.758,385.071
-2.167,-0.431,-0.559,29.846,-541.87,372.986
-2.687,-0.661,-0.696,50.171,-541.931,323.853
-3.164,-0.909,-0.79,61.829,-505.859,258.728
-3.427,-0.965,-0.759,56.274,-433.105,197.876
-3.486,-0.712,-0.556,41.626,-338.989,148.56
-4.0,0.056,-0.719,68.665,-227.356,122.925
-4.0,-0.502,-0.434,153.503,-65.063,155.823
-3.259,-1.707,0.148,64.026,31.921,235.901
-1.367,-2.475,0.052,-78.308,17.273,200.684
-0.612,-1.99,-0.156,-76.782,-24.475,47.913
-0.495,-1.134,-0.475,-0.427,-43.274,-87.524
-0.257,-1.088,-0.554,17.578,-5.554,-149.902
-0.075,-1.094,-0.144,4.883,73.12,-176.453
0.063,-1.283,0.237,23.132,142.151,-184.082
0.358,-1.632,0.515,28.992,162.231,-208.313
0.489,-1.564,0.684,25.513,148.499,-211.548
0.553,-1.228,0.677,19.47,127.869,-194.031
0.575,-0.955,0.664,15.015,97.351,-158.02
0.593,-0.787,0.641,10.681,60.791,-97.107
0.51,-0.734,0.705,7.202,26.917,-35.767
0.429,-0.747,0.759,3.357,-13.794,17.456
0.316,-0.748,0.742,0.549,-61.768,60.73
0.158,-0.741,0.685,-0.061,-106.628,86.853
0.011,-0.758,0.631,-0.488,-141.846,99.121
-0.161,-0.773,0.581,-0.61,-166.138,101.624
-0.399,-0.787,0.499,0.61,-177.917,93.628
-0.599,-0.888,0.361,2.014,-175.171,77.148
-0.766,-1.004,0.193,0.549,-151.855,53.833
-0.871,-1.078,0.057,-0.366,-107.971,24.719
-0.83,-1.068,0.03,0.977,-50.476,-5.066
-0.678,-0.968,0.125,2.625,6.348,-28.442
-0.495,-0.882,0.247,2.502,47.729,-40.71
-0.371,-0.826,0.362,1.038,67.444,-40.771
-0.287,-0.793,0.436,0.488,67.017,-30.273
-0.238,-0.8,0.476,-0.732,53.65,-15.259
-0.224,-0.835,0.481,-2.014,34.363,-1.648
-0.23,-0.877,0.453,-2.93,15.076,9.827
-0.266,-0.931,0.444,-3.662,0.671,15.381
-0.309,-0.958,0.423,-3.845,-7.751,14.282
-0.231,-1.062,0.409,-4.944,-8.972,9.644
-0.322,-0.967,0.344,-5.92,-7.874,-1.587
-0.239,-1.009,0.371,-7.568,-3.601,-1.221
-0.139,-1.219,0.499,-4.7,2.686,-13.794
-0.063,-1.064,0.514,1.16,-10.376,-37.292
-0.571,-0.76,-0.164,-7.812,-22.156,-35.4
-0.566,-0.888,-0.176,-13.0,49.255,-30.273
-0.245,-0.884,0.558,-0.671,123.657,-36.865
-0.073,-0.864,0.43,7.446,120.667,-40.222
-0.23,-0.948,0.451,4.578,116.15,-38.391
-0.147,-0.721,0.794,0.854,111.023,-36.926
-0.027,-0.709,0.623,-2.319,75.5,-16.846
-0.082,-0.807,0.745,-5.127,52.856,-6.47
-0.067,-0.856,0.728,-5.31,17.944,-2.441
-0.072,-0.796,0.599,-8.484,-21.79,4.761
-0.155,-0.759,0.503,-13.245,-45.227,18.005
-0.196,-0.85,0.449,-13.062,-55.847,33.569
-0.243,-0.953,0.38,-7.812,-58.899,38.696
-0.257,-1.008,0.414,-3.296,-54.688,35.339
-0.266,-1.007,0.386,-2.014,-50.659,28.137
-0.364,-0.966,0.243,-2.441,-43.823,18.311
-0.416,-0.979,0.238,-2.014,-19.531,8.728
-0.354,-1.022,0.347,1.099,9.705,-5.859
-0.317,-1.006,0.381,3.906,26.489,-23.743
-0.269,-0.984,0.474,2.93,35.95,-36.072
-0.232,-0.935,0.558,0.854,35.645,-44.861
-0.18,-0.865,0.58,-1.526,20.752,-46.814
-0.17,-0.826,0.568,-4.333,1.648,-39.001
-0.199,-0.844,0.54,-7.446,-17.456,-27.039
-0.213,-0.881,0.503,-8.606,-34.241,-14.587
-0.251,-0.887,0.433,-9.033,-46.265,-5.798
-0.304,-0.859,0.359,-9.583,-49.438,0.732
-0.322,-0.853,0.322,-10.01,-41.565,6.653
-0.34,-0.857,0.299,-9.155,-27.466,8.728
-0.342,-0.856,0.295,-7.568,-10.498,6.714
-0.331,-0.867,0.326,-6.775,7.568,3.235
-0.32,-0.88,0.366,-5.127,23.315,-3.113
-0.29,-0.88,0.406,-3.601,34.363,-10.864
-0.264,-0.878,0.44,-3.296,40.1,-18.066
-0.244,-0.875,0.471,-3.845,41.26,-23.01
-0.235,-0.865,0.491,-3.784,38.574,-26.428
-0.221,-0.856,0.498,-3.784,32.654,-27.466
-0.218,-0.84,0.506,-3.296,25.635,-24.78
-0.209,-0.83,0.517,-2.93,18.066,-17.761
-0.195,-0.833,0.532,-2.93,9.033,-8.667
-0.191,-0.831,0.543,-2.93,-1.709,1.038
-0.198,-0.828,0.545,-3.052,-13.916,10.925
-0.222,-0.83,0.538,-3.052,-26.062,19.287
-0.239,-0.853,0.523,-3.235,-35.767,25.513
-0.26,-0.88,0.5,-3.967,-42.358,28.625
-0.292,-0.9,0.46,-4.761,-45.532,27.466
-0.318,-0.914,0.421,-5.005,-43.823,21.851
-0.334,-0.919,0.392,-4.883,-37.109,12.207
-0.345,-0.915,0.376,-3.784,-26.489,0.793
-0.342,-0.903,0.368,-2.441,-14.343,-9.521
-0.333,-0.891,0.379,-1.282,-2.502,-18.372
-0.311,-0.89,0.398,-0.183,7.263,-25.146
-0.296,-0.88,0.423,0.183,13.428,-28.503
-0.286,-0.858,0.446,0.549,15.686,-28.198
-0.282,-0.838,0.46,0.427,14.954,-23.926
-0.275,-0.84,0.469,-0.488,12.573,-16.663
-0.272,-0.849,0.476,-1.404,9.399,-7.874
-0.272,-0.859,0.478,-2.014,6.226,-0.977
1.957,-0.958,-0.421,-36.499,-335.571,25.452
2.221,-0.826,-0.509,-18.066,-424.866,27.466
2.609,-0.781,-0.651,5.188,-536.438,35.522
2.985,-0.784,-0.863,32.166,-668.579,48.279
3.242,-0.835,-1.193,52.612,-802.795,62.195
3.247,-0.896,-1.58,61.523,-914.124,75.684
2.939,-0.889,-1.853,67.078,-979.37,91.797
2.385,-0.805,-1.928,67.261,-988.037,113.037
1.736,-0.776,-1.835,52.002,-947.266,136.597
1.203,-0.828,-1.767,40.955,-873.108,166.565
0.735,-0.841,-1.77,36.499,-780.029,190.674
0.29,-0.812,-1.674,35.828,-687.988,194.763
-0.178,-0.754,-1.465,48.279,-616.821,176.636
-0.669,-0.699,-1.203,64.697,-572.876,144.958
-1.178,-0.635,-0.978,77.759,-555.054,113.403
-1.627,-0.571,-0.843,88.074,-548.889,89.6
-1.931,-0.715,-0.957,91.797,-529.785,74.524
-2.065,-1.02,-1.125,81.177,-471.497,60.242
-2.161,-1.183,-1.036,64.819,-376.343,47.607
-3.079,-0.597,-0.194,78.613,-286.804,40.527
-4.0,-0.4,-0.42,118.408,-264.099,130.981
-3.968,-1.247,-1.464,-10.376,-245.728,344.604
-2.03,-2.732,-1.767,-139.038,-153.931,443.787
-0.787,-2.602,-1.082,-147.034,-14.404,299.927
-0.394,-1.554,-0.261,-11.536,59.082,55.603
-0.144,-0.785,-0.158,44.373,91.98,-105.774
0.306,-0.871,0.326,37.048,141.541,-124.512
0.227,-1.481,0.937,52.185,169.983,-110.779
0.323,-1.819,1.197,59.448,127.38,-130.066
0.402,-1.682,1.082,44.25,49.377,-134.949
0.218,-1.352,0.946,14.771,-11.78,-114.319
0.085,-1.1,0.729,-12.329,-55.054,-69.885
-0.006,-0.97,0.525,-32.166,-80.811,-18.005
-0.18,-0.848,0.43,-43.762,-87.158,22.156
-0.346,-0.763,0.414,-48.889,-84.778,44.556
-0.476,-0.698,0.406,-48.157,-83.618,45.349
-0.533,-0.66,0.355,-42.908,-84.473,32.41
-0.55,-0.641,0.256,-34.607,-81.665,10.864
-0.529,-0.629,0.127,-23.621,-69.031,-13.0
-0.49,-0.597,0.046,-12.146,-41.687,-32.471
-0.412,-0.571,0.109,-3.113,-2.319,-40.588
-0.225,-0.654,0.341,2.502,33.569,-36.072
-0.064,-0.738,0.558,4.211,43.945,-27.161
0.047,-0.766,0.662,0.793,24.963,-12.756
0.002,-0.7,0.587,-3.662,-8.911,3.723
-0.01,-0.659,0.412,-5.981,-39.795,23.865
-0.09,-0.839,0.365,-6.653,-49.316,46.875
-0.292,-1.157,0.196,-1.465,-49.194,47.546
-0.411,-1.104,0.205,8.057,-34.424,19.836
-0.361,-0.781,0.379,12.756,-13.184,0.916
-0.409,-0.765,0.156,7.141,-12.878,13.916
-0.375,-1.095,0.319,4.7,-1.465,29.724
-0.356,-1.222,0.259,9.705,-4.272,16.418
-0.383,-1.25,0.226,11.292,-8.301,-7.141
-0.345,-1.105,0.36,9.888,-3.174,-32.593
-0.223,-0.978,0.445,7.629,-9.46,-43.274
-0.098,-0.887,0.583,2.93,-27.832,-40.1
-0.114,-0.9,0.422,-3.357,-59.082,-22.949
-0.235,-0.895,0.262,-7.69,-77.209,-6.47
-0.361,-0.957,0.082,-9.033,-67.383,5.188
-0.459,-1.014,0.091,-7.446,-32.776,6.714
-0.414,-0.975,0.237,-3.174,8.362,-1.77
-0.371,-0.908,0.341,-1.465,33.875,-9.216
-0.271,-0.763,0.54,-2.136,42.664,-13.0
-0.226,-0.743,0.491,-4.15,30.518,-7.141
-0.236,-0.735,0.451,-5.066,15.808,-1.343
-0.25,-0.796,0.389,-3.296,4.333,5.554
-0.265,-0.891,0.459,-0.183,-2.136,5.493
-0.246,-0.946,0.484,2.014,-10.62,-0.427
-0.257,-0.926,0.46,0.793,-26.123,-4.883
-0.282,-0.926,0.399,-2.258,-39.734,-4.211
-0.31,-0.938,0.322,-4.7,-47.058,-1.099
-0.334,-0.948,0.247,-6.409,-44.25,2.441
-0.354,-0.964,0.192,-7.202,-31.189,5.676
-0.356,-0.99,0.208,-7.141,-9.705,5.859
-0.347,-0.984,0.258,-5.615,12.695,1.587
-0.317,-0.957,0.319,-4.578,28.259,-3.357
-0.278,-0.912,0.361,-4.089,35.95,-7.751
-0.259,-0.873,0.416,-2.563,36.133,-9.949
-0.246,-0.858,0.462,-1.16,29.663,-9.949
-0.236,-0.859,0.482,-1.526,15.991,-8.118
-0.235,-0.866,0.463,-2.686,-1.404,-6.042
-0.249,-0.878,0.421,-3.357,-17.151,-5.31
-0.275,-0.884,0.363,-3.723,-27.161,-6.348
-0.303,-0.879,0.347,-3.906,-29.48,-6.775
-0.324,-0.873,0.325,-4.944,-26.245,-5.127
-0.335,-0.868,0.3,-6.226,-18.616,-2.197
-0.322,-0.865,0.303,-6.042,-6.958,0.427
-0.305,-0.869,0.338,-5.371,5.066,1.953
-0.284,-0.863,0.389,-4.7,14.282,3.357
-0.279,-0.854,0.391,-3.784,17.151,5.249
-0.266,-0.86,0.417,-1.953,17.09,6.226
-0.255,-0.898,0.444,-0.183,13.855,6.042
-0.256,-0.933,0.484,0.122,6.165,4.089
-0.262,-0.93,0.479,-0.488,-6.104,0.183
-0.284,-0.911,0.412,-0.854,-18.494,-3.052
-0.305,-0.911,0.354,-1.526,-23.621,-3.906
-0.32,-0.926,0.332,-1.587,-20.325,-3.235
-0.326,-0.941,0.333,-2.075,-12.268,-3.235
-0.319,-0.943,0.343,-3.357,-2.808,-3.174
-0.305,-0.938,0.359,-4.578,6.165,-2.258
-0.283,-0.927,0.374,-5.554,13.245,-1.526
-0.265,-0.906,0.39,-5.859,16.602,-0.671
-0.256,-0.873,0.397,-5.493,16.174,0.549
-0.257,-0.854,0.406,-4.089,12.39,2.014
-0.263,-0.864,0.406,-2.625,6.104,4.15
-0.281,-0.888,0.392,-2.075,-1.465,5.005
-0.31,-0.905,0.365,-1.587,-7.568,3.479
-0.325,-0.908,0.338,-0.671,-10.01,-0.488
-0.319,-0.918,0.337,0.427,-8.057,-3.845
-0.308,-0.93,0.351,0.366,-3.723,-5.737
-0.292,-0.935,0.368,-0.61,1.099,-6.226
-0.268,-0.934,0.392,-2.38,6.104,-5.249
-0.26,-0.92,0.406,-3.967,9.338,-3.723
-0.26,-0.901,0.408,-5.127,11.23,-1.526
-0.265,-0.895,0.414,-5.676,11.658,1.038
-0.259,-0.879,0.418,-5.31,10.254,1.587
-0.257,-0.863,0.408,-3.601,6.348,1.099
-0.27,-0.862,0.407,-1.953,1.77,0.305
1.758,-1.123,-0.333,-101.074,-206.97,-5.371
2.131,-1.055,-0.603,-110.413,-301.025,-7.141
2.462,-0.831,-0.77,-104.797,-410.461,-13.916
2.827,-0.546,-0.971,-84.534,-541.87,-7.812
3.035,-0.45,-1.216,-40.161,-687.927,2.563
3.148,-0.548,-1.517,-7.446,-821.228,23.743
3.013,-0.794,-1.734,-0.244,-924.255,56.091
2.694,-0.989,-1.906,-3.418,-991.394,77.82
2.17,-0.924,-2.0,0.488,-1011.475,75.256
1.59,-0.749,-1.96,8.301,-985.352,55.908
1.075,-0.615,-1.88,10.742,-924.744,43.823
0.759,-0.599,-1.828,13.428,-843.994,50.476
0.522,-0.633,-1.769,21.606,-752.563,70.374
0.154,-0.607,-1.58,31.067,-660.767,98.572
-0.24,-0.699,-1.226,39.795,-581.116,134.705
-0.528,-0.922,-0.891,43.64,-528.442,171.753
-0.746,-1.135,-0.695,42.419,-506.714,198.669
-0.905,-1.214,-0.602,35.828,-503.723,204.712
-1.088,-1.209,-0.675,26.917,-508.423,194.397
-1.336,-1.141,-0.958,16.174,-500.0,179.565
-1.664,-0.862,-0.95,13.489,-451.782,164.185
-3.134,-0.333,-0.049,63.049,-383.24,168.762
-4.0,-0.312,-0.476,94.36,-372.864,288.635
-4.0,-1.299,-2.309,-83.74,-368.652,482.117
-3.069,-2.834,-2.205,-219.604,-223.389,513.55
-1.28,-3.403,-1.618,-153.198,-33.508,313.721
-0.501,-2.201,-0.606,30.823,79.712,-0.916
0.036,-1.254,0.077,82.764,150.391,-219.116
0.156,-0.911,0.336,71.655,175.781,-279.236
0.389,-1.072,0.603,59.937,176.392,-229.614
0.397,-1.449,0.673,44.678,153.748,-164.673
0.605,-1.77,0.797,27.161,115.723,-120.361
0.667,-1.612,0.811,13.55,67.139,-95.886
0.57,-1.16,0.735,-0.061,15.32,-75.134
0.446,-0.768,0.694,-13.489,-24.78,-36.011
0.275,-0.608,0.663,-23.071,-57.739,12.39
0.024,-0.636,0.613,-27.71,-86.365,54.443
-0.249,-0.712,0.538,-27.466,-107.056,80.383
-0.507,-0.738,0.441,-25.94,-118.53,85.083
-0.703,-0.749,0.283,-24.414,-119.995,69.58
-0.835,-0.765,0.111,-20.752,-105.652,40.588
-0.859,-0.779,-0.02,-13.977,-71.777,8.362
-0.724,-0.815,-0.017,-5.615,-22.156,-20.752
-0.54,-0.81,0.094,3.845,27.832,-45.288
-0.328,-0.812,0.284,8.972,64.575,-57.983
-0.115,-0.893,0.47,8.85,77.82,-59.143
-0.036,-0.898,0.51,5.737,66.04,-54.016
-0.002,-0.877,0.485,0.366,44.434,-38.818
0.091,-0.961,0.587,-5.859,22.705,-15.808
0.069,-0.943,0.529,-9.644,-5.066,3.479
0.038,-1.161,0.5,-13.245,-29.968,20.203
-0.209,-1.099,0.29,-13.977,-49.744,12.817
-0.291,-0.893,0.235,-13.794,-49.377,10.132
-0.296,-0.893,0.281,-13.977,-35.645,15.503
-0.331,-0.896,0.203,-10.498,-31.006,15.137
-0.405,-0.882,0.125,-6.775,-22.766,13.977
-0.445,-0.958,0.177,-2.625,-4.089,8.545
-0.41,-1.053,0.319,3.479,10.193,-6.165
-0.347,-0.979,0.35,7.629,9.705,-25.94
-0.304,-0.872,0.326,5.249,7.935,-34.363
-0.255,-0.847,0.362,2.686,12.085,-33.325
-0.19,-0.841,0.396,2.441,17.09,-28.87
-0.142,-0.887,0.468,1.587,21.24,-22.095
-0.137,-0.898,0.515,0.61,19.409,-18.616
-0.142,-0.875,0.528,-0.671,11.78,-15.198
-0.166,-0.859,0.517,-2.869,3.235,-9.521
-0.199,-0.85,0.488,-5.127,-4.333,-2.686
-0.233,-0.844,0.441,-6.348,-10.254,3.418
-0.264,-0.844,0.395,-6.165,-12.695,7.629
-0.283,-0.857,0.367,-5.066,-12.024,9.827
-0.304,-0.881,0.338,-3.601,-10.132,9.949
-0.309,-0.906,0.341,-2.38,-6.775,8.606
-0.304,-0.908,0.334,-0.916,-4.333,5.432
-0.286,-0.922,0.346,-0.305,-2.808,2.625
-0.263,-0.949,0.375,-0.366,-2.136,2.014
-0.269,-0.955,0.359,-0.916,-3.357,2.38
-0.262,-0.957,0.358,-2.136,-2.319,3.54
-0.244,-0.953,0.368,-2.93,1.343,4.639
-0.229,-0.931,0.361,-2.686,4.15,5.066
-0.222,-0.927,0.375,-1.831,7.874,6.226
-0.222,-0.932,0.399,-1.221,10.071,6.226
-0.237,-0.94,0.449,-0.488,8.911,5.188
-0.223,-0.962,0.503,-0.793,2.075,2.502
-0.219,-0.952,0.49,-1.892,-11.78,-1.77
-0.24,-0.92,0.436,-3.54,-26.733,-5.676
-0.286,-0.87,0.351,-4.333,-34.79,-8.484
-0.314,-0.857,0.288,-3.967,-32.227,-8.118
-0.321,-0.903,0.288,-3.113,-20.508,-6.836
-0.322,-0.938,0.314,-2.319,-6.836,-7.812
-0.294,-0.927,0.351,-2.197,4.578,-9.46
-0.256,-0.883,0.394,-2.563,12.146,-10.681
-0.204,-0.855,0.417,-2.136,14.282,-10.498
-0.182,-0.847,0.434,-1.465,12.878,-7.568
-0.188,-0.852,0.446,-0.549,9.033,-3.601
-0.219,-0.857,0.435,0.061,4.15,0.244
-0.245,-0.873,0.428,0.366,0.671,4.333
-0.256,-0.914,0.433,-0.122,-1.221,7.08
-0.275,-0.934,0.419,-0.732,-3.54,6.958
-0.294,-0.938,0.396,-1.404,-5.005,4.395
-0.3,-0.94,0.375,-1.587,-4.822,0.793
-0.284,-0.944,0.376,-1.892,-2.197,-2.319
-0.266,-0.946,0.399,-2.197,0.488,-4.395
-0.246,-0.944,0.418,-3.54,0.916,-5.188
-0.231,-0.937,0.417,-5.31,-0.488,-4.944
-0.224,-0.928,0.41,-6.042,-2.258,-4.822
-0.23,-0.911,0.397,-5.554,-2.686,-5.005
-0.235,-0.898,0.398,-4.822,-1.648,-4.272
-0.241,-0.897,0.408,-3.967,-0.61,-3.418
-0.242,-0.902,0.416,-3.235,-0.732,-3.052
-0.245,-0.903,0.418,-2.747,-2.197,-3.235
-0.246,-0.901,0.415,-2.686,-4.333,-3.662
-0.252,-0.891,0.409,-2.93,-6.714,-3.845
-0.264,-0.873,0.389,-3.113,-9.338,-3.174
-0.277,-0.869,0.367,-2.869,-9.521,-1.465
-0.28,-0.882,0.362,-2.563,-7.324,-0.305
-0.275,-0.892,0.368,-1.77,-3.906,-0.427
-0.27,-0.893,0.381,-0.977,-0.366,-1.953
-0.265,-0.889,0.39,-0.366,2.441,-3.052
-0.253,-0.888,0.399,-0.366,4.944,-2.93
1.867,-0.922,-0.129,-7.996,-313.721,78.125
2.167,-0.844,-0.4,2.258,-416.626,85.51
2.444,-0.706,-0.681,28.442,-531.921,88.684
2.623,-0.708,-0.904,52.002,-648.499,92.041
2.725,-0.832,-1.137,48.95,-754.211,97.778
2.719,-0.962,-1.374,38.33,-842.773,103.577
2.468,-1.059,-1.582,41.382,-907.41,96.497
2.122,-1.021,-1.735,43.03,-950.562,81.421
1.667,-0.839,-1.789,36.987,-971.924,68.176
1.058,-0.639,-1.686,33.325,-964.783,57.495
0.458,-0.546,-1.539,32.776,-929.016,67.444
-0.114,-0.586,-1.484,28.931,-866.455,100.525
-0.592,-0.783,-1.514,21.118,-776.001,141.113
-1.022,-1.071,-1.45,18.25,-660.706,162.354
-1.277,-1.275,-1.234,19.043,-540.771,149.597
-1.296,-1.324,-0.966,22.217,-443.97,115.784
-1.217,-1.148,-0.793,26.306,-377.441,76.111
-1.232,-0.811,-0.659,24.475,-327.087,51.392
-2.33,-0.126,0.156,41.992,-287.17,63.66
-3.753,0.22,0.16,97.534,-307.617,191.589
-4.0,-0.257,-1.088,-41.26,-373.901,409.119
-3.219,-2.255,-2.775,-156.067,-349.792,478.149
-1.592,-2.923,-2.221,-194.214,-129.944,309.692
-0.832,-1.875,-0.901,-24.231,52.551,61.401
-0.126,-0.942,-0.118,69.031,145.264,-138.855
0.382,-0.764,0.302,56.152,184.937,-198.486
0.396,-0.996,0.685,46.387,199.036,-165.039
0.418,-1.427,0.829,50.537,176.697,-114.014
0.539,-1.84,0.818,38.513,127.686,-91.553
0.453,-1.699,0.771,20.386,78.369,-85.144
0.302,-1.249,0.76,4.944,37.292,-62.561
0.137,-0.935,0.671,-11.047,-2.808,-22.461
-0.055,-0.832,0.609,-27.344,-36.316,29.053
-0.261,-0.874,0.489,-39.49,-61.829,71.045
-0.433,-0.872,0.456,-44.067,-78.491,82.764
-0.579,-0.728,0.396,-42.664,-90.454,71.35
-0.55,-0.758,0.325,-39.368,-96.313,54.565
-0.71,-0.703,0.042,-32.166,-89.294,25.391
-0.745,-0.656,-0.122,-21.79,-50.781,2.625
-0.62,-0.737,0.024,-9.033,12.817,-15.625
-0.571,-0.629,0.151,3.357,67.139,-30.884
0.138,-0.796,0.787,8.85,101.807,-25.513
0.128,-0.796,0.776,7.935,69.519,-22.827
-0.072,-0.706,0.427,-1.404,14.832,-4.7
-0.242,-0.844,0.073,-0.793,14.587,9.155
-0.102,-1.141,0.318,3.052,47.852,10.071
-0.152,-1.152,0.489,10.986,72.876,-9.033
-0.102,-0.944,0.554,10.01,64.758,-23.499
-0.11,-0.783,0.608,3.54,46.265,-14.16
-0.168,-0.794,0.516,-2.747,18.127,5.981
-0.241,-0.856,0.384,-4.639,-5.188,22.888
-0.25,-0.97,0.327,-2.991,-10.803,30.823
-0.262,-1.13,0.368,-1.099,-10.803,25.452
-0.233,-1.146,0.513,2.808,-15.442,3.296
-0.234,-1.016,0.443,4.395,-31.616,-16.907
-0.316,-0.907,0.319,0.183,-39.856,-22.583
-0.318,-0.885,0.294,-2.747,-25.879,-18.25
-0.33,-0.954,0.229,-3.296,-2.563,-11.597
-0.245,-1.026,0.405,-1.77,29.236,-13.611
-0.146,-0.993,0.52,-0.854,44.861,-21.24
-0.164,-0.818,0.489,-2.747,42.542,-25.024
-0.139,-0.754,0.518,-5.31,42.053,-16.235
-0.114,-0.781,0.576,-6.592,36.621,-5.066
-0.09,-0.811,0.602,-4.395,22.644,1.77
-0.127,-0.818,0.566,-3.723,2.686,7.507
-0.191,-0.832,0.534,-4.15,-14.587,10.681
-0.205,-0.848,0.51,-3.723,-28.137,11.597
-0.236,-0.857,0.459,-3.479,-37.231,11.536
-0.247,-0.932,0.433,-4.272,-40.161,11.292
-0.253,-0.974,0.428,-3.601,-39.917,5.493
-0.244,-0.961,0.387,-2.319,-37.598,-1.221
-0.288,-0.944,0.304,-3.845,-29.602,-2.258
-0.275,-0.956,0.336,-4.517,-11.292,-0.122
-0.263,-0.99,0.334,-4.211,5.554,0.854
-0.237,-1.016,0.421,-3.967,20.386,-0.366
-0.207,-0.998,0.475,-4.517,26.428,-3.052
-0.197,-0.942,0.492,-5.371,22.644,-5.798
-0.191,-0.889,0.496,-6.287,14.404,-6.592
-0.184,-0.871,0.482,-6.104,3.906,-5.371
-0.192,-0.873,0.46,-5.981,-5.92,-4.028
-0.211,-0.88,0.437,-5.432,-13.794,-3.479
-0.227,-0.887,0.417,-4.883,-18.127,-4.456
-0.246,-0.883,0.401,-4.7,-18.982,-6.226
-0.251,-0.87,0.403,-4.578,-16.418,-7.507
-0.245,-0.857,0.407,-3.906,-11.963,-8.057
-0.231,-0.855,0.412,-3.601,-6.836,-7.935
-0.215,-0.857,0.425,-3.479,-1.648,-6.348
-0.195,-0.854,0.439,-2.686,2.502,-5.371
-0.179,-0.843,0.459,-1.526,3.54,-4.944
-0.173,-0.839,0.477,-0.488,0.793,-3.54
-0.184,-0.84,0.49,-0.244,-4.822,-0.854
-0.21,-0.848,0.481,-0.183,-12.756,2.502
-0.232,-0.871,0.447,-0.183,-20.569,5.31
-0.246,-0.907,0.409,-0.61,-24.414,6.409
-0.254,-0.938,0.38,-1.221,-22.644,4.761
-0.273,-0.933,0.373,-0.916,-16.785,1.221
-0.278,-0.919,0.379,-0.244,-8.667,-1.831
-0.259,-0.92,0.395,-0.305,-0.305,-3.54
-0.243,-0.922,0.423,-0.549,7.446,-3.784
-0.23,-0.91,0.449,-0.732,11.902,-3.296
-0.218,-0.904,0.452,-1.282,12.146,-2.502
-0.207,-0.909,0.464,-2.258,10.986,-1.282
-0.204,-0.929,0.468,-2.808,8.545,-1.404
-0.211,-0.925,0.474,-2.93,4.761,-3.723
-0.216,-0.9,0.479,-2.502,0.122,-6.287
-0.228,-0.881,0.467,-2.686,-4.517,-6.836
-0.242,-0.881,0.443,-3.662,-7.324,-5.005
-0.245,-0.885,0.423,-3.723,-7.202,-3.418
-0.242,-0.893,0.409,-3.296,-4.944,-3.906
-0.246,-0.893,0.421,-3.052,-1.099,-4.761
-0.245,-0.876,0.438,-2.563,2.625,-5.31
-0.23,-0.86,0.44,-1.404,3.784,-5.371
-0.219,-0.872,0.447,-1.221,4.272,-3.784
-0.213,-0.896,0.463,-1.892,4.211,-1.038
-0.22,-0.905,0.462,-2.625,2.136,-0.488
-0.227,-0.897,0.454,-2.747,-0.61,-1.77
-0.227,-0.892,0.453,-2.563,-1.892,-2.563
-0.226,-0.888,0.454,-2.563,-2.869,-2.747
-0.233,-0.887,0.444,-2.563,-4.15,-2.808
1.857,-0.956,-0.32,-82.764,-116.516,52.307
2.125,-0.874,-0.604,-88.623,-201.965,54.81
2.51,-0.677,-0.94,-55.42,-317.261,46.509
2.717,-0.539,-1.127,5.31,-451.233,36.438
2.965,-0.558,-1.231,48.767,-592.957,38.086
3.213,-0.735,-1.369,67.2,-736.694,58.96
3.286,-0.844,-1.647,77.087,-886.536,89.905
3.16,-0.845,-2.064,87.158,-1024.414,107.056
2.772,-0.68,-2.348,93.445,-1113.281,116.821
2.098,-0.504,-2.413,86.792,-1138.55,124.512
1.183,-0.338,-2.303,74.463,-1110.596,143.127
0.247,-0.256,-2.133,71.045,-1038.269,186.951
-0.398,-0.539,-2.16,82.458,-929.871,238.342
-1.019,-0.938,-2.357,86.121,-786.438,261.719
-1.461,-1.214,-2.095,75.073,-606.445,257.141
-1.572,-1.328,-1.495,69.153,-441.223,239.685
-1.487,-1.323,-0.878,71.594,-337.097,208.374
-1.405,-1.361,-0.422,79.895,-297.852,154.968
-1.436,-1.338,-0.24,90.271,-304.81,98.511
-1.723,-1.041,-0.205,94.116,-322.51,61.89
-3.151,-0.701,0.068,115.723,-330.2,77.698
-4.0,-0.794,-0.811,112.854,-332.52,228.149
-2.974,-2.677,-1.834,-5.005,-255.92,381.348
-1.108,-3.498,-1.302,-136.292,-68.542,358.093
-0.322,-2.656,-0.398,-94.421,54.199,192.81
0.036,-1.527,-0.06,-8.484,67.505,-27.527
0.153,-0.87,-0.213,15.93,59.998,-152.466
0.076,-0.779,-0.041,19.348,96.68,-151.001
0.054,-1.307,0.507,23.01,145.508,-102.661
0.21,-1.586,0.81,24.841,142.395,-79.041
0.419,-1.492,0.874,13.123,98.145,-54.993
0.352,-1.304,0.844,-7.568,48.523,-37.231
0.245,-1.07,0.731,-20.874,1.648,-31.067
0.163,-0.792,0.587,-25.452,-33.936,-24.231
0.005,-0.58,0.496,-29.358,-50.293,-9.644
-0.079,-0.552,0.498,-32.776,-52.979,14.16
-0.153,-0.623,0.478,-31.128,-54.26,31.433
-0.171,-0.713,0.475,-25.513,-56.213,35.889
-0.208,-0.763,0.453,-18.921,-58.899,28.381
-0.273,-0.767,0.383,-13.123,-60.608,15.442
-0.341,-0.778,0.282,-8.606,-55.054,3.601
-0.373,-0.831,0.212,-4.761,-37.354,-5.798
-0.357,-0.887,0.227,-1.953,-9.277,-13.367
-0.253,-0.957,0.338,-0.488,20.02,-18.494
-0.135,-0.974,0.455,-0.977,37.903,-23.132
-0.102,-0.885,0.398,-2.502,38.696,-23.193
-0.068,-0.92,0.412,-5.005,38.391,-16.235
0.134,-1.052,0.593,-6.226,34.302,-6.226
0.111,-1.161,0.643,-5.615,13.062,-7.69
-0.114,-0.835,0.267,-5.066,-20.569,-17.639
-0.125,-0.798,0.282,-10.01,-13.428,1.709
-0.094,-0.966,0.481,-9.094,5.127,11.169
-0.111,-0.945,0.369,-3.357,-1.892,9.644
-0.268,-0.911,0.22,-3.906,-0.366,8.484
-0.296,-0.95,0.276,-5.371,23.804,4.517
-0.235,-0.967,0.385,-0.183,47.119,-7.568
-0.184,-0.97,0.44,3.296,57.129,-24.414
-0.146,-0.916,0.519,2.502,59.875,-36.621
-0.068,-0.852,0.597,1.465,53.955,-42.419
-0.005,-0.822,0.614,0.366,37.17,-43.213
-0.015,-0.786,0.555,-1.648,18.494,-38.025
0.005,-0.803,0.579,-3.296,5.493,-27.039
0.025,-0.844,0.599,-3.662,-6.836,-16.785
0.022,-0.891,0.594,-3.296,-23.071,-9.338
-0.071,-0.857,0.457,-4.639,-38.391,-2.991
-0.165,-0.837,0.365,-7.69,-37.17,7.751
-0.198,-0.887,0.381,-9.216,-21.362,17.273
-0.175,-0.948,0.445,-8.057,-6.226,19.592
-0.155,-0.962,0.493,-6.958,1.099,14.832
-0.152,-0.918,0.502,-7.141,1.404,7.568
-0.163,-0.859,0.48,-6.836,-0.061,2.625
-0.166,-0.851,0.468,-5.249,-0.183,0.305
-0.168,-0.875,0.438,-3.601,2.014,0.549
-0.12,-0.943,0.501,-2.38,7.507,0.916
-0.1,-0.971,0.524,-0.854,5.981,-3.296
-0.22,-0.948,0.302,-1.038,0.244,-7.629
-0.215,-0.88,0.321,-1.465,16.357,-7.019
-0.084,-1.032,0.533,-2.319,34.668,-2.441
0.002,-1.035,0.653,0.122,28.503,-12.634
-0.043,-0.878,0.511,-0.732,1.892,-17.395
-0.128,-0.801,0.39,-4.517,-8.606,-12.085
-0.142,-0.866,0.4,-3.784,-2.319,-4.639
-0.11,-0.937,0.517,0.61,6.104,-4.883
-0.079,-0.935,0.576,0.977,2.441,-8.118
-0.095,-0.885,0.529,-2.075,-9.46,-8.301
-0.134,-0.857,0.435,-5.127,-18.311,-6.165
-0.126,-0.869,0.414,-5.554,-16.174,-4.395
-0.107,-0.881,0.429,-4.761,-9.155,-3.418
-0.096,-0.874,0.469,-4.272,-3.357,-3.296
-0.112,-0.832,0.47,-4.395,-1.77,-2.808
-0.104,-0.794,0.475,-4.395,-0.732,0.549
-0.09,-0.809,0.483,-4.028,-0.122,6.104
-0.08,-0.833,0.501,-3.052,-1.953,9.216
-0.095,-0.849,0.502,-2.136,-6.287,10.071
-0.111,-0.86,0.5,-1.709,-11.536,9.277
-0.118,-0.877,0.488,-1.526,-15.503,8.484
-0.131,-0.886,0.473,-1.526,-17.7,7.874
-0.137,-0.891,0.459,-1.831,-17.151,7.507
-0.147,-0.89,0.44,-1.831,-14.038,7.812
-0.149,-0.908,0.438,-1.648,-7.874,9.155
-0.154,-0.947,0.451,-2.38,-0.916,9.644
-0.152,-0.97,0.474,-3.662,5.615,8.301
-0.148,-0.966,0.488,-4.333,9.766,5.066
-0.132,-0.95,0.504,-4.944,11.902,1.77
-0.123,-0.934,0.519,-5.798,11.414,0.183
-0.112,-0.92,0.514,-6.47,7.812,0.183
-0.104,-0.913,0.493,-6.836,3.479,-0.122
-0.1,-0.907,0.47,-6.226,0.488,-1.16
-0.11,-0.904,0.466,-4.883,-0.183,-2.625
-0.112,-0.91,0.469,-4.089,0.183,-3.357
-0.11,-0.92,0.469,-3.967,1.16,-4.089
-0.11,-0.918,0.474,-3.845,2.747,-4.7
-0.107,-0.913,0.478,-3.784,4.7,-5.432
-0.101,-0.905,0.492,-3.845,6.47,-5.493
-0.093,-0.9,0.498,-4.028,7.385,-5.005
-0.082,-0.898,0.505,-4.456,7.507,-4.272
-0.077,-0.886,0.508,-5.005,6.165,-3.784
-0.08,-0.864,0.507,-4.7,3.601,-3.479
-0.086,-0.849,0.506,-3.784,0.488,-3.357
1.402,-1.188,-0.335,-88.44,-200.256,0.977
1.486,-1.263,-0.429,-107.605,-254.822,-10.254
1.552,-1.267,-0.494,-116.028,-303.955,-29.358
1.832,-1.246,-0.664,-114.258,-355.713,-45.532
2.201,-1.1,-0.839,-108.948,-422.363,-50.293
2.422,-0.812,-0.931,-93.506,-502.197,-41.992
2.669,-0.601,-1.037,-63.477,-595.032,-22.278
2.77,-0.469,-1.1,-28.198,-685.425,15.625
2.757,-0.569,-1.232,-8.24,-765.137,72.266
2.62,-0.752,-1.457,4.333,-835.266,130.676
2.232,-0.867,-1.643,18.921,-881.897,174.377
1.767,-0.983,-1.752,29.297,-904.358,204.163
1.191,-1.052,-1.817,27.283,-900.513,225.586
0.486,-1.035,-1.92,15.198,-867.676,242.004
-0.199,-0.995,-2.0,3.845,-800.537,248.413
-0.731,-0.938,-2.009,7.751,-703.003,247.07
-1.096,-0.903,-1.645,23.071,-585.999,231.995
-1.276,-0.966,-1.066,45.349,-490.479,210.144
-1.428,-0.909,-0.538,58.228,-443.298,183.044
-3.248,0.138,0.921,118.53,-437.988,159.729
-4.0,-0.205,-0.26,235.168,-492.432,270.264
-4.0,-1.041,-2.274,-93.75,-464.6,536.987
-3.653,-3.58,-1.649,-286.194,-247.559,636.292
-1.463,-3.834,-1.604,-194.763,-46.326,434.692
-0.246,-2.155,-0.54,4.395,72.693,68.298
0.359,-1.145,0.433,99.121,145.386,-182.068
0.526,-0.684,0.781,70.129,145.691,-264.099
0.609,-0.799,0.694,48.706,106.14,-212.83
0.437,-1.449,0.692,36.865,79.041,-158.325
0.409,-1.691,0.829,26.978,57.739,-145.569
0.593,-1.442,0.719,16.602,24.658,-114.38
0.591,-1.214,0.682,1.221,3.113,-75.256
0.46,-1.031,0.663,-7.69,-14.709,-35.522
0.369,-0.865,0.647,-12.39,-36.438,2.93
0.117,-0.645,0.598,-16.052,-57.251,34.18
-0.082,-0.547,0.603,-20.142,-70.374,66.65
-0.247,-0.662,0.609,-21.79,-79.712,89.661
-0.457,-0.769,0.496,-21.057,-88.989,87.891
-0.576,-0.828,0.387,-19.226,-85.571,69.092
-0.6,-0.819,0.323,-16.846,-66.345,38.391
-0.507,-0.798,0.296,-11.414,-38.635,6.165
-0.45,-0.742,0.285,-5.371,-7.568,-19.775
-0.337,-0.75,0.354,-2.38,24.902,-31.372
-0.191,-0.838,0.461,-2.808,50.903,-32.471
-0.028,-0.928,0.536,-3.845,61.829,-32.043
0.116,-0.955,0.594,-5.493,57.8,-32.532
0.19,-0.901,0.591,-7.507,44.495,-30.029
0.153,-0.778,0.518,-9.46,28.442,-17.212
0.2,-0.786,0.553,-10.681,20.264,3.967
0.183,-0.803,0.468,-11.23,13.611,33.63
0.166,-1.184,0.646,-9.399,11.108,54.565
-0.103,-1.053,0.367,-5.127,-16.296,37.598
-0.232,-0.951,0.326,-6.287,-16.724,38.33
-0.257,-0.959,0.501,-8.423,0.244,31.982
-0.257,-0.971,0.381,-8.179,-2.686,24.963
-0.319,-1.028,0.375,-9.277,3.113,14.709
-0.224,-1.048,0.506,-7.446,12.634,-7.812
-0.145,-0.947,0.488,-5.371,9.094,-31.921
-0.148,-0.814,0.447,-5.371,5.371,-46.692
-0.093,-0.786,0.491,-5.737,9.766,-47.913
-0.031,-0.793,0.505,-4.761,13.184,-44.067
0.016,-0.808,0.521,-3.479,14.648,-36.621
0.021,-0.823,0.545,-3.113,15.259,-29.419
0.021,-0.784,0.559,-2.808,14.404,-22.339
0.045,-0.777,0.594,-2.563,13.306,-10.803
0.046,-0.79,0.592,-3.235,9.033,-0.671
0.028,-0.794,0.59,-2.93,4.089,8.545
0.01,-0.809,0.587,-3.113,-0.305,16.663
-0.018,-0.849,0.587,-3.052,-4.822,22.095
-0.064,-0.853,0.559,-2.869,-10.498,23.315
-0.1,-0.844,0.529,-2.319,-13.428,23.01
-0.122,-0.863,0.521,-2.197,-12.268,21.912
-0.143,-0.891,0.512,-2.014,-9.399,18.921
-0.152,-0.921,0.512,-1.282,-6.104,13.855
-0.139,-0.937,0.521,-0.793,-2.319,6.409
-0.114,-0.938,0.529,-0.183,0.793,-1.465
-0.092,-0.941,0.54,-0.488,2.747,-7.019
-0.077,-0.942,0.539,-1.465,3.662,-11.292
-0.062,-0.923,0.525,-2.014,3.845,-14.038
-0.055,-0.899,0.515,-2.258,4.272,-14.282
-0.04,-0.892,0.524,-2.38,5.188,-12.085
-0.031,-0.907,0.54,-2.93,4.944,-8.545
-0.019,-0.923,0.556,-3.906,2.075,-5.615
-0.035,-0.889,0.539,-4.639,-2.808,-4.028
-0.047,-0.849,0.53,-5.676,-6.042,-1.282
-0.055,-0.84,0.522,-6.348,-7.08,3.296
-0.063,-0.851,0.521,-6.226,-6.775,6.165
-0.07,-0.851,0.522,-5.371,-6.165,5.432
-0.071,-0.829,0.525,-4.517,-5.005,4.089
-0.076,-0.804,0.526,-3.479,-4.028,3.235
-0.075,-0.805,0.522,-2.563,-2.441,3.052
-0.072,-0.824,0.519,-1.282,-0.305,2.869
-0.07,-0.847,0.525,-0.122,1.831,1.038
-0.072,-0.866,0.534,0.854,3.113,-1.953
-0.075,-0.871,0.542,1.343,3.296,-5.005
-0.081,-0.856,0.533,0.977,2.808,-6.409
-0.073,-0.856,0.53,0.488,3.174,-5.737
-0.067,-0.874,0.524,-0.061,4.272,-4.639
-0.065,-0.886,0.525,-0.305,5.798,-3.845
-0.059,-0.884,0.541,-0.793,7.935,-3.052
-0.041,-0.888,0.562,-1.099,9.216,-2.014
-0.03,-0.892,0.583,-2.136,8.545,-0.854
-0.031,-0.885,0.593,-2.747,5.92,0.549
-0.032,-0.874,0.592,-3.174,1.709,0.854
-0.038,-0.869,0.582,-3.723,-2.319,0.916
-0.047,-0.867,0.564,-3.845,-4.944,0.977
-0.062,-0.87,0.544,-3.54,-5.798,0.549
-0.074,-0.879,0.531,-3.662,-4.578,-0.244
-0.083,-0.879,0.525,-3.723,-2.014,-1.465
-0.08,-0.879,0.524,-3.113,0.732,-2.93
-0.084,-0.869,0.528,-2.808,3.113,-4.7
-0.078,-0.864,0.537,-2.502,5.066,-4.883
-0.064,-0.876,0.542,-2.808,5.92,-3.967
-0.047,-0.887,0.546,-3.906,5.92,-3.662
-0.041,-0.871,0.547,-3.784,5.249,-4.822
-0.037,-0.849,0.551,-2.93,3.784,-6.287
-0.035,-0.843,0.555,-2.93,2.502,-6.287
-0.037,-0.856,0.555,-2.991,0.916,-5.615
-0.05,-0.862,0.555,-2.93,-0.244,-5.432
1.829,-0.959,-0.316,-88.257,-228.699,-36.56
2.14,-0.982,-0.521,-90.393,-307.129,-34.241
2.438,-1.063,-0.819,-80.383,-402.039,-34.973
2.616,-1.006,-1.075,-58.838,-508.362,-37.292
2.601,-0.851,-1.218,-30.334,-600.769,-26.672
2.633,-0.689,-1.364,-19.592,-679.504,-3.174
2.506,-0.74,-1.461,-16.052,-757.812,24.292
2.206,-0.727,-1.555,-6.47,-823.669,69.58
1.651,-0.629,-1.65,9.399,-872.375,106.323
1.033,-0.572,-1.692,24.963,-892.395,134.949
0.41,-0.496,-1.703,37.537,-869.568,168.823
-0.068,-0.507,-1.673,46.204,-810.547,204.773
-0.405,-0.71,-1.586,49.866,-732.788,237.244
-0.685,-0.832,-1.355,50.903,-652.161,246.277
-0.916,-0.872,-1.072,67.383,-592.834,231.506
-1.161,-0.939,-0.895,77.332,-554.626,204.59
-1.455,-1.035,-0.789,73.364,-519.409,181.458
-2.191,-0.513,-0.022,77.393,-475.159,164.551
-4.0,-0.401,0.487,183.655,-448.181,183.228
-4.0,-0.807,-1.067,119.446,-433.411,352.356
-3.595,-2.822,-1.572,-144.226,-323.975,535.95
-1.851,-3.893,-1.125,-208.069,-159.668,452.148
-0.889,-2.628,-0.683,-76.05,-58.96,163.086
-0.145,-1.306,-0.102,56.213,-24.78,-93.567
0.035,-0.527,0.138,72.266,0.122,-192.444
0.14,-0.58,0.348,51.575,27.039,-158.325
0.156,-1.302,0.598,43.518,42.053,-88.745
0.165,-1.879,0.694,36.255,37.231,-62.927
0.345,-1.96,0.692,22.4,18.799,-65.979
0.402,-1.651,0.684,6.226,0.488,-77.148
0.446,-1.17,0.608,-8.423,-20.142,-82.458
0.334,-0.692,0.55,-14.282,-39.917,-71.472
0.303,-0.638,0.598,-12.207,-63.293,-36.621
0.199,-0.736,0.574,-18.372,-87.036,16.174
-0.019,-0.873,0.516,-21.79,-118.103,55.847
-0.309,-0.878,0.314,-23.804,-142.395,67.627
-0.593,-0.749,0.019,-21.851,-140.808,67.627
-0.711,-0.742,0.002,-19.104,-102.051,61.829
-0.573,-0.826,0.299,-10.986,-53.04,46.265
-0.466,-0.818,0.428,-6.592,-33.691,26.184
-0.647,-0.65,0.042,-9.338,-35.4,10.62
-0.555,-0.78,-0.037,-11.719,-4.517,9.216
-0.194,-1.217,0.577,-4.822,45.654,-1.221
-0.143,-1.174,0.515,0.671,34.18,-40.222
-0.177,-0.815,0.217,-4.639,9.827,-57.373
-0.13,-0.706,0.344,-11.292,23.56,-44.128
-0.0,-0.794,0.399,-6.226,26.794,-29.602
0.021,-0.877,0.318,0.366,13.428,-15.686
-0.102,-0.953,0.304,1.16,5.798,-3.845
-0.186,-1.015,0.399,1.77,1.77,1.465
-0.207,-1.043,0.471,2.869,-9.277,1.526
-0.253,-1.041,0.427,-0.671,-27.222,1.77
-0.332,-1.01,0.279,-6.287,-40.894,3.418
-0.347,-1.037,0.237,-8.057,-36.804,2.686
-0.326,-1.046,0.254,-5.249,-24.78,-7.08
-0.293,-1.017,0.297,-2.686,-13.489,-18.188
-0.275,-0.971,0.331,-3.479,-5.066,-25.696
-0.241,-0.914,0.36,-4.395,-0.183,-28.809
-0.178,-0.882,0.419,-4.089,2.075,-29.358
-0.141,-0.838,0.442,-4.028,-1.16,-27.771
-0.205,-0.778,0.325,-4.089,-6.226,-21.423
-0.304,-0.705,0.203,-4.395,1.465,-10.742
-0.242,-0.785,0.319,-2.747,27.954,3.235
-0.126,-0.961,0.582,-0.916,44.006,8.789
-0.103,-0.962,0.616,-0.122,28.015,0.916
-0.163,-0.831,0.503,-2.686,1.099,-5.798
-0.229,-0.751,0.398,-4.395,-13.916,-5.92
-0.259,-0.788,0.324,-3.113,-16.479,-1.465
-0.211,-0.856,0.438,0.061,-11.536,2.686
-0.185,-0.914,0.459,1.953,-16.846,3.601
-0.231,-0.882,0.4,1.709,-29.053,2.441
-0.29,-0.848,0.297,2.38,-33.997,3.052
-0.306,-0.914,0.293,4.272,-26.062,4.944
-0.291,-0.992,0.328,6.226,-12.939,3.723
-0.273,-1.004,0.365,6.714,-2.441,-0.061
-0.258,-0.991,0.387,4.944,5.432,-3.296
-0.195,-0.975,0.463,2.686,10.864,-4.089
-0.162,-0.943,0.471,0.854,7.202,-4.028
-0.144,-0.891,0.489,-1.099,-1.526,-1.953
-0.17,-0.871,0.451,-3.479,-12.146,3.479
-0.232,-0.873,0.369,-5.249,-21.606,10.254
-0.281,-0.937,0.321,-6.042,-22.278,15.686
-0.299,-1.004,0.314,-5.737,-16.907,13.0
-0.295,-0.978,0.307,-4.456,-11.108,3.296
-0.283,-0.893,0.333,-2.991,-4.333,-5.066
-0.265,-0.836,0.354,-1.953,0.061,-7.69
-0.248,-0.87,0.379,-1.282,3.174,-5.188
-0.251,-0.908,0.393,0.183,3.784,-3.906
-0.25,-0.931,0.397,1.404,3.296,-3.784
-0.239,-0.951,0.404,1.404,2.991,-4.639
-0.235,-0.946,0.393,0.977,1.892,-5.92
-0.226,-0.948,0.398,0.427,0.854,-7.324
-0.22,-0.947,0.404,-0.061,-0.244,-9.094
-0.226,-0.929,0.405,-0.427,-1.892,-10.071
-0.24,-0.923,0.407,-1.16,-3.052,-9.583
-0.25,-0.919,0.411,-2.502,-3.052,-7.996
-0.254,-0.909,0.411,-2.991,-3.174,-7.751
-0.256,-0.897,0.406,-2.563,-3.479,-8.789
-0.256,-0.887,0.396,-2.258,-2.991,-9.583
-0.257,-0.881,0.38,-1.953,-1.526,-9.888
-0.253,-0.884,0.375,-1.648,1.709,-9.46
-0.239,-0.891,0.385,-1.099,5.493,-8.911
-0.219,-0.887,0.405,-0.61,8.24,-9.216
-0.215,-0.869,0.41,-0.061,7.751,-8.484
-0.219,-0.876,0.416,0.427,6.287,-5.981
-0.211,-0.909,0.431,0.366,4.883,-3.418
-0.211,-0.93,0.441,-0.122,1.831,-1.953
-0.216,-0.925,0.435,-1.343,-2.625,-1.465
-0.234,-0.907,0.407,-2.258,-6.714,-1.526
-0.238,-0.899,0.391,-2.686,-8.545,-0.549
-0.236,-0.906,0.383,-2.686,-8.606,0.366
-0.24,-0.902,0.37,-2.136,-8.118,0.549
-0.256,-0.896,0.37,-0.977,-6.165,0.122
-0.265,-0.889,0.38,0.0,-4.089,-0.244
-0.262,-0.907,0.391,0.305,-2.808,-0.244
-0.259,-0.926,0.392,0.061,-2.563,-0.671
-0.257,-0.93,0.378,-0.427,-2.258,-2.075
-0.249,-0.933,0.374,-0.427,-0.183,-3.662
-0.238,-0.936,0.386,-0.732,2.93,-4.333
1.843,-0.862,-0.273,-39.124,-291.565,-4.7
2.045,-0.78,-0.395,-31.677,-367.859,-10.254
2.262,-0.7,-0.548,-20.264,-456.299,-6.653
2.355,-0.64,-0.704,-3.113,-553.589,-1.953
2.397,-0.573,-0.846,15.991,-644.348,3.906
2.321,-0.457,-0.945,28.687,-722.778,18.188
2.231,-0.484,-1.087,31.006,-792.175,29.175
1.938,-0.606,-1.175,33.813,-850.159,31.616
1.457,-0.67,-1.188,35.156,-885.437,38.574
0.89,-0.69,-1.18,38.208,-896.851,46.936
0.326,-0.685,-1.24,37.354,-878.296,66.345
-0.199,-0.645,-1.374,26.917,-820.129,101.501
-0.664,-0.647,-1.54,22.461,-719.788,142.578
-0.911,-0.747,-1.426,27.893,-589.233,171.509
-0.921,-0.952,-1.016,42.908,-465.759,177.856
-0.854,-1.055,-0.622,51.819,-380.615,169.373
-0.831,-1.017,-0.318,53.467,-336.182,152.649
-1.441,-0.388,0.289,64.209,-323.73,134.888
-3.376,-0.165,0.658,144.104,-346.619,172.852
-4.0,-0.47,-1.06,61.646,-403.503,374.451
-3.518,-2.069,-2.558,-172.058,-332.458,540.161
-1.817,-3.604,-1.642,-216.614,-107.91,457.092
-0.589,-2.927,-0.724,-45.105,17.029,186.646
0.03,-1.788,0.101,86.06,49.316,-98.755
0.003,-0.93,0.512,91.431,49.194,-221.313
-0.166,-0.642,0.555,53.467,35.828,-198.303
0.003,-1.222,0.519,38.696,26.672,-127.075
0.048,-1.764,0.49,34.058,25.269,-94.971
0.224,-1.877,0.482,26.489,29.419,-85.449
0.416,-1.6,0.595,12.512,36.194,-94.299
0.428,-0.996,0.458,6.348,26.428,-129.028
0.365,-0.777,0.523,14.404,5.92,-152.527
0.317,-0.615,0.59,16.907,-8.118,-129.7
0.148,-0.618,0.523,14.465,-33.508,-72.754
-0.106,-0.775,0.468,5.188,-57.983,-14.771
-0.391,-0.862,0.37,-0.183,-72.266,25.146
-0.685,-0.796,0.118,-6.042,-73.12,50.781
-0.895,-0.544,-0.092,-12.451,-42.48,68.176
-0.511,-0.774,0.274,-13.611,12.085,90.515
-0.352,-1.426,0.798,-12.085,32.227,71.289
-0.307,-1.208,0.738,-3.601,-11.963,-12.695
-0.449,-0.566,0.008,-12.451,-65.857,-50.842
-0.574,-0.533,-0.052,-18.494,-29.724,-49.927
-0.376,-0.816,0.386,-6.226,23.804,-46.265
-0.125,-0.986,0.49,8.606,38.635,-53.406
-0.116,-0.929,0.393,4.211,32.227,-52.063
-0.175,-0.857,0.296,-6.653,30.334,-33.081
-0.201,-0.92,0.177,-8.484,40.588,-14.465
-0.109,-0.972,0.259,-3.784,58.411,-3.784
-0.03,-1.035,0.404,-3.296,66.711,5.798
0.023,-1.053,0.615,-6.165,54.382,9.033
0.017,-0.941,0.673,-7.202,16.846,7.629
-0.161,-0.793,0.461,-8.667,-32.776,10.254
-0.332,-0.769,0.299,-9.338,-58.899,19.348
-0.389,-0.922,0.299,-7.507,-59.326,26.245
-0.42,-1.011,0.254,-4.028,-52.979,16.602
-0.458,-1.023,0.194,-2.808,-40.161,1.038
-0.449,-0.969,0.213,-2.136,-15.564,-15.137
-0.402,-0.914,0.239,-0.122,11.475,-25.818
-0.308,-0.893,0.363,1.221,38.025,-29.968
-0.203,-0.889,0.464,0.793,53.65,-27.71
-0.14,-0.911,0.523,-1.77,55.603,-22.034
-0.075,-0.895,0.603,-3.906,47.424,-17.029
-0.055,-0.849,0.577,-6.165,29.785,-10.193
-0.062,-0.833,0.572,-7.629,11.23,-1.099
-0.092,-0.835,0.543,-7.324,-7.263,5.859
-0.15,-0.84,0.503,-6.226,-23.926,11.353
-0.201,-0.865,0.476,-5.92,-34.851,15.686
-0.25,-0.888,0.427,-5.981,-41.809,17.456
-0.302,-0.906,0.364,-5.676,-43.152,16.846
-0.332,-0.937,0.331,-5.249,-37.17,13.855
-0.329,-0.952,0.318,-5.127,-27.039,8.423
-0.323,-0.936,0.324,-4.395,-16.296,2.075
-0.323,-0.906,0.322,-3.296,-7.141,-1.831
-0.304,-0.905,0.337,-2.625,0.793,-2.258
-0.274,-0.938,0.371,-2.136,6.775,-1.77
-0.247,-0.964,0.406,-1.953,8.057,-3.296
-0.242,-0.945,0.417,-2.136,4.395,-6.348
-0.25,-0.925,0.416,-2.258,-0.732,-9.033
-0.253,-0.917,0.417,-2.075,-4.883,-10.742
-0.25,-0.922,0.409,-2.014,-8.362,-11.169
-0.249,-0.929,0.396,-3.418,-10.559,-10.315
-0.259,-0.907,0.381,-4.517,-11.169,-9.827
-0.256,-0.877,0.364,-4.578,-9.583,-9.277
-0.244,-0.855,0.376,-4.578,-5.676,-7.446
-0.231,-0.849,0.398,-3.967,-2.258,-4.639
-0.224,-0.854,0.418,-3.113,-0.549,-1.221
-0.225,-0.871,0.437,-3.052,-0.488,2.563
-0.228,-0.884,0.45,-2.808,-2.014,4.7
-0.234,-0.889,0.451,-2.747,-4.7,4.517
-0.244,-0.897,0.444,-2.808,-7.751,2.93
-0.261,-0.903,0.427,-2.686,-10.071,0.977
-0.279,-0.904,0.406,-2.441,-10.803,-1.587
-0.286,-0.911,0.389,-2.258,-9.46,-3.845
-0.28,-0.912,0.383,-1.953,-6.47,-5.737
-0.271,-0.903,0.385,-1.404,-3.967,-6.775
-0.261,-0.895,0.394,-2.075,-2.136,-6.226
-0.257,-0.896,0.408,-2.563,-1.16,-4.028
-0.253,-0.905,0.414,-2.625,-2.075,-1.526
-0.252,-0.911,0.419,-3.052,-3.296,1.099
-0.253,-0.916,0.409,-3.113,-4.517,2.197
-0.253,-0.915,0.408,-3.479,-4.639,1.038
-0.263,-0.898,0.404,-3.113,-4.517,-1.16
-0.261,-0.878,0.406,-2.075,-3.845,-2.808
-0.258,-0.871,0.407,-1.038,-2.991,-4.272
-0.251,-0.874,0.411,-0.122,-2.197,-5.31
-0.252,-0.879,0.414,0.854,-2.563,-5.981
-0.256,-0.885,0.413,1.16,-3.357,-6.592
-0.26,-0.895,0.417,1.465,-3.723,-6.775
-0.262,-0.9,0.417,1.282,-4.028,-5.981
-0.263,-0.902,0.415,0.671,-3.967,-4.578
-0.263,-0.908,0.41,-0.061,-3.54,-2.747
-0.259,-0.919,0.407,-0.732,-2.38,-0.977
-0.261,-0.929,0.412,-1.709,-0.977,-0.549
-0.263,-0.926,0.414,-2.441,0.305,-1.465
-0.261,-0.911,0.412,-2.502,0.549,-3.479
-0.26,-0.892,0.41,-2.014,0.305,-5.371
-0.26,-0.88,0.413,-1.465,-0.366,-6.287
-0.265,-0.877,0.413,-0.977,-1.526,-6.287
1.598,-1.144,-0.192,-63.354,-186.584,14.771
1.738,-1.223,-0.34,-71.899,-247.559,25.757
1.863,-1.285,-0.496,-76.172,-319.824,37.659
1.986,-1.369,-0.649,-70.374,-393.494,45.776
2.103,-1.413,-0.759,-60.791,-468.506,54.321
2.251,-1.294,-0.89,-52.673,-550.659,66.345
2.379,-1.052,-1.007,-36.072,-643.677,81.726
2.49,-0.854,-1.149,-7.996,-746.094,99.365
2.393,-0.739,-1.33,20.02,-855.286,114.258
2.149,-0.633,-1.483,31.982,-941.895,134.216
1.636,-0.575,-1.543,39.124,-991.516,156.067
1.047,-0.516,-1.52,39.856,-1013.428,183.105
0.371,-0.457,-1.542,31.921,-1008.606,206.543
-0.44,-0.467,-1.661,25.33,-963.989,219.177
-1.244,-0.548,-1.756,12.817,-864.014,222.107
-1.743,-0.79,-1.735,2.869,-713.806,222.046
-1.946,-0.93,-1.444,-1.404,-542.48,209.29
-2.054,-0.83,-0.858,11.597,-402.1,179.565
-2.926,-0.261,-0.156,47.913,-322.388,158.813
-4.0,0.07,-0.606,99.792,-293.213,207.52
-4.0,-0.561,-1.333,-18.616,-238.708,349.243
-2.681,-2.437,-1.231,-146.912,-140.503,424.805
-0.602,-3.063,-1.045,-143.494,-41.504,291.321
-0.089,-2.054,-0.539,-13.977,25.208,18.433
0.129,-0.989,-0.007,68.665,69.214,-175.72
0.21,-0.572,0.279,70.19,94.91,-226.318
0.134,-0.814,0.522,58.716,108.948,-170.532
0.177,-1.476,0.763,43.579,111.328,-88.196
0.537,-1.869,0.894,23.926,95.52,-47.546
0.618,-1.496,0.909,12.939,55.908,-81.665
0.361,-1.214,0.856,21.667,-16.785,-145.874
0.206,-0.827,0.575,16.174,-57.678,-151.306
0.016,-0.679,0.481,13.062,-66.833,-100.22
-0.237,-0.668,0.484,5.371,-64.758,-41.809
-0.375,-0.722,0.438,-0.183,-64.758,19.043
-0.467,-0.847,0.479,-9.766,-66.04,69.031
-0.532,-0.927,0.476,-21.179,-75.317,89.966
-0.605,-0.903,0.339,-30.579,-88.501,88.196
-0.691,-0.858,0.156,-34.973,-88.806,71.777
-0.717,-0.832,0.008,-31.921,-67.749,48.096
-0.652,-0.8,-0.023,-21.79,-26.55,22.705
-0.526,-0.763,0.107,-8.667,21.79,1.16
-0.348,-0.769,0.314,1.709,59.631,-9.827
-0.143,-0.832,0.537,6.165,72.754,-11.108
-0.079,-0.926,0.681,5.92,56.763,-6.409
-0.558,-1.079,0.057,2.319,26.55,0.854
-0.06,-1.509,0.474,1.77,41.992,-5.31
-0.112,-1.14,0.683,4.211,41.565,-44.006
-0.276,-0.544,0.26,-3.662,13.977,-41.077
-0.398,-0.319,-0.221,-17.456,23.682,10.986
-0.196,-0.924,0.407,-13.123,90.027,62.378
-0.082,-1.173,0.835,3.54,99.609,52.795
-0.1,-1.138,0.62,8.423,43.152,22.888
-0.027,-1.055,1.056,0.732,1.77,1.038
-0.133,-0.823,0.765,-5.31,-73.303,-21.851
-0.062,-0.55,0.706,-6.042,-126.587,-28.198
-0.222,-0.662,0.218,-7.751,-158.02,-8.85
-0.462,-0.863,0.051,-8.484,-137.512,2.563
-0.494,-0.999,-0.006,1.77,-80.627,-2.808
-0.468,-1.056,0.18,9.888,-18.188,-15.32
-0.392,-0.959,0.47,11.841,29.175,-27.466
-0.344,-0.826,0.523,4.7,43.701,-24.78
-0.311,-0.847,0.411,-3.967,45.715,-11.841
-0.23,-0.788,0.548,-7.385,51.147,-3.662
-0.085,-0.717,0.548,-6.47,42.48,4.089
-0.175,-0.741,0.4,-6.409,24.78,13.855
-0.218,-0.793,0.448,-1.831,19.531,16.785
-0.25,-0.866,0.424,4.578,15.137,14.648
-0.325,-0.952,0.467,7.263,11.414,6.409
-0.239,-0.964,0.657,8.24,9.338,-4.883
-0.236,-0.918,0.594,5.859,-10.925,-11.658
-0.261,-0.88,0.517,1.221,-28.748,-11.841
-0.246,-0.908,0.429,-1.099,-35.278,-8.179
-0.258,-0.94,0.344,-1.526,-31.982,-5.676
-0.27,-0.941,0.371,-0.916,-18.738,-2.747
-0.306,-0.938,0.377,-0.488,-5.859,0.61
-0.315,-0.94,0.41,-0.977,5.188,2.991
-0.302,-0.925,0.439,-2.075,13.672,3.357
-0.287,-0.896,0.454,-3.052,17.09,1.038
-0.255,-0.859,0.518,-3.174,17.334,-2.747
-0.249,-0.84,0.531,-2.991,10.132,-5.981
-0.23,-0.8,0.527,-2.441,0.061,-8.423
-0.24,-0.786,0.453,-1.892,-9.399,-8.057
-0.237,-0.819,0.445,-1.038,-12.451,-6.531
-0.253,-0.864,0.426,-0.122,-12.939,-5.31
-0.266,-0.887,0.455,0.061,-11.169,-5.066
-0.287,-0.881,0.426,-0.61,-10.498,-4.395
-0.276,-0.861,0.432,-1.099,-7.874,-2.869
-0.265,-0.857,0.424,-0.854,-5.737,-1.404
-0.271,-0.867,0.429,-1.343,-4.578,0.61
-0.277,-0.889,0.429,-1.953,-3.174,2.38
-0.282,-0.902,0.431,-2.686,-1.038,1.953
-0.272,-0.893,0.45,-2.136,2.197,0.61
-0.259,-0.883,0.468,-2.441,3.906,0.122
-0.255,-0.871,0.486,-3.174,3.601,0.854
-0.259,-0.856,0.479,-3.418,0.671,1.221
-0.257,-0.849,0.468,-2.93,-2.563,0.977
-0.247,-0.846,0.473,-2.258,-4.517,0.183
-0.247,-0.829,0.463,-1.77,-7.324,0.061
-0.261,-0.84,0.459,-1.587,-9.827,1.709
-0.28,-0.871,0.444,-1.709,-11.108,3.235
-0.3,-0.892,0.433,-1.953,-9.827,3.662
-0.301,-0.916,0.443,-2.38,-5.676,3.296
-0.289,-0.922,0.459,-3.601,-1.465,1.709
-0.277,-0.894,0.464,-4.395,1.77,-0.427
-0.264,-0.874,0.463,-4.883,3.967,-1.404
-0.253,-0.867,0.479,-5.127,5.92,-0.916
-0.245,-0.863,0.476,-4.578,5.493,-0.366
-0.245,-0.865,0.48,-3.723,3.784,-0.061
-0.245,-0.873,0.468,-3.113,1.16,0.366
-0.24,-0.88,0.458,-2.197,-0.793,0.61
-0.245,-0.883,0.454,-1.404,-2.502,0.488
-0.261,-0.885,0.456,-1.038,-4.028,0.732
-0.278,-0.891,0.451,-0.732,-5.005,0.732
-0.285,-0.898,0.443,-0.488,-5.127,0.122
-0.28,-0.905,0.444,-0.427,-3.906,-1.038
-0.261,-0.913,0.445,-1.038,-1.953,-2.686
-0.26,-0.904,0.455,-0.916,0.427,-5.249
-0.253,-0.887,0.463,-0.488,2.136,-6.714
1.358,-1.183,0.205,-7.751,-154.48,55.908
1.607,-1.357,0.056,-20.325,-191.65,66.04
1.89,-1.496,-0.117,-40.283,-240.601,78.796
2.186,-1.48,-0.32,-59.631,-308.35,95.093
2.342,-1.24,-0.493,-69.275,-392.639,106.018
2.52,-0.97,-0.645,-63.538,-495.422,114.746
2.667,-0.792,-0.882,-39.368,-609.009,116.15
2.55,-0.775,-1.084,-18.311,-705.505,128.357
2.245,-0.819,-1.23,-8.057,-773.315,156.738
1.783,-0.834,-1.345,-1.526,-817.932,175.354
1.229,-0.826,-1.46,8.85,-839.05,186.157
0.67,-0.789,-1.518,14.465,-823.486,200.806
0.206,-0.794,-1.529,13.184,-774.597,216.309
-0.187,-0.86,-1.518,11.475,-707.642,225.22
-0.667,-0.889,-1.478,16.052,-634.888,219.727
-1.095,-0.897,-1.344,29.541,-556.763,197.205
-1.283,-0.946,-0.954,46.143,-479.614,163.513
-1.302,-1.02,-0.574,57.495,-427.979,126.709
-1.351,-1.0,-0.326,52.734,-402.344,97.717
-1.52,-0.821,-0.167,42.358,-387.512,80.078
-2.911,-0.135,0.883,86.426,-371.216,81.726
-4.0,-0.029,-0.036,147.339,-391.602,189.758
-4.0,-1.025,-1.838,-90.881,-357.727,402.466
-2.933,-2.62,-1.56,-196.777,-154.846,421.021
-1.459,-2.649,-0.857,-117.554,22.888,232.849
-0.3,-1.686,-0.304,-1.038,98.083,3.906
0.314,-0.701,0.136,29.663,116.394,-130.127
0.78,-0.703,0.597,19.531,104.553,-149.78
0.224,-0.517,0.526,26.428,52.246,-141.968
-0.159,-0.44,-0.295,32.471,23.621,-81.543
0.469,-1.474,1.136,37.292,93.201,-11.719
0.423,-1.812,1.209,37.598,52.795,-9.644
0.198,-1.582,0.683,16.602,-30.701,-8.606
0.026,-1.206,0.741,-4.639,-50.72,-11.108
0.076,-0.792,0.669,-15.686,-62.195,-2.258
-0.069,-0.61,0.506,-22.4,-73.853,27.954
-0.292,-0.699,0.457,-24.17,-71.106,59.143
-0.417,-0.805,0.44,-20.752,-62.439,76.294
-0.546,-0.825,0.381,-17.761,-54.138,74.768
-0.68,-0.827,0.29,-18.372,-40.833,62.622
-0.749,-0.793,0.166,-18.982,-16.785,45.227
-0.705,-0.795,0.094,-16.052,20.02,27.283
-0.698,-0.988,-0.017,-10.193,66.345,6.165
-0.2,-1.137,0.649,-2.258,114.014,-26.489
0.064,-0.862,0.889,0.427,103.882,-62.073
-0.222,-0.379,0.103,-8.484,54.382,-61.89
-0.07,-0.688,0.396,-15.259,68.542,-17.029
0.104,-1.079,0.693,-0.916,81.36,-7.263
0.255,-1.199,0.722,7.629,39.246,-17.273
0.214,-1.094,0.879,3.662,-9.338,-25.818
0.083,-0.868,0.666,-4.456,-67.017,-23.621
-0.1,-0.759,0.399,-10.986,-106.384,-3.601
-0.319,-0.797,0.166,-13.0,-108.276,19.714
-0.414,-0.925,0.068,-10.315,-79.163,36.316
-0.464,-1.045,0.097,-4.089,-35.828,39.734
-0.422,-1.093,0.337,1.831,4.578,26.917
-0.354,-0.947,0.52,4.211,24.231,6.47
-0.256,-0.807,0.59,0.427,22.095,-3.54
-0.245,-0.874,0.556,-3.784,11.047,-5.127
-0.257,-0.89,0.472,-1.831,2.197,-13.611
-0.254,-0.889,0.421,0.977,4.517,-22.461
-0.231,-0.929,0.503,2.869,15.015,-30.762
-0.153,-0.924,0.599,4.395,20.203,-38.94
-0.11,-0.789,0.615,2.38,12.817,-41.809
-0.136,-0.761,0.492,-2.686,3.601,-28.931
-0.141,-0.827,0.505,-5.615,4.028,-13.306
-0.127,-0.839,0.461,-4.395,5.493,-4.395
-0.147,-0.839,0.474,-4.211,8.972,2.747
-0.136,-0.839,0.544,-3.784,13.062,7.935
-0.162,-0.812,0.536,-3.479,9.094,10.681
-0.183,-0.8,0.571,-2.441,4.578,12.817
-0.21,-0.818,0.549,-1.099,-2.197,13.977
-0.222,-0.84,0.536,-0.061,-8.423,12.146
-0.239,-0.856,0.5,0.671,-13.428,7.202
-0.237,-0.858,0.48,1.892,-16.052,0.366
-0.248,-0.852,0.432,3.662,-16.479,-5.798
-0.258,-0.87,0.42,4.7,-12.634,-9.705
-0.264,-0.895,0.419,5.127,-6.348,-11.536
-0.256,-0.908,0.438,5.249,-0.549,-12.085
-0.226,-0.926,0.473,4.7,4.333,-10.437
-0.198,-0.92,0.5,3.113,5.432,-8.118
-0.179,-0.89,0.501,1.526,3.479,-5.188
-0.174,-0.885,0.491,0.671,0.732,-1.648
-0.173,-0.893,0.5,1.038,-0.977,0.916
-0.176,-0.908,0.52,1.404,-2.563,2.136
-0.192,-0.907,0.525,1.465,-4.822,2.502
-0.21,-0.899,0.517,0.977,-7.812,1.709
-0.228,-0.894,0.502,0.61,-9.583,0.366
-0.227,-0.89,0.498,0.122,-9.338,-1.099
-0.213,-0.876,0.492,0.0,-8.545,-2.686
-0.216,-0.842,0.485,0.122,-8.545,-4.028
-0.213,-0.841,0.492,0.244,-7.751,-3.784
-0.212,-0.852,0.503,0.244,-8.057,-2.869
-0.213,-0.863,0.48,-0.305,-9.399,-1.404
-0.212,-0.879,0.49,-0.854,-8.545,-1.282
-0.214,-0.877,0.488,-0.305,-7.751,-2.441
-0.22,-0.874,0.498,-0.61,-7.08,-2.625
-0.209,-0.88,0.509,-1.221,-6.592,-2.686
-0.205,-0.877,0.5,-1.953,-7.69,-3.174
-0.208,-0.867,0.495,-2.014,-8.362,-3.235
-0.214,-0.864,0.496,-2.197,-8.362,-2.93
-0.235,-0.871,0.477,-2.502,-7.935,-1.953
-0.24,-0.891,0.49,-3.418,-5.432,-0.793
-0.239,-0.895,0.485,-4.028,-2.869,-1.038
-0.229,-0.884,0.492,-4.578,-0.366,-2.502
-0.214,-0.867,0.498,-4.944,0.916,-3.967
-0.215,-0.847,0.491,-5.31,0.0,-4.822
-0.22,-0.836,0.487,-5.066,-1.526,-4.395
-0.231,-0.844,0.472,-4.822,-2.625,-3.723
-0.232,-0.855,0.466,-4.761,-1.77,-3.174
-0.222,-0.851,0.462,-4.15,0.671,-3.235
-0.206,-0.837,0.47,-3.052,3.418,-3.052
-0.193,-0.84,0.493,-2.258,5.066,-1.587
-0.191,-0.865,0.517,-2.197,4.944,0.854
-0.197,-0.884,0.527,-2.441,2.441,2.625
-0.203,-0.888,0.512,-2.38,-0.427,1.892
-0.203,-0.888,0.505,-2.38,-2.075,0.305
-0.203,-0.88,0.502,-1.892,-3.54,-1.221
-0.199,-0.867,0.505,-1.221,-4.639,-1.77
1.31,-1.259,0.285,-6.897,-28.442,16.663
1.504,-1.347,0.222,-25.391,-47.546,32.654
1.744,-1.378,0.09,-53.223,-91.309,56.091
1.969,-1.358,-0.158,-81.421,-168.823,82.703
2.356,-1.198,-0.6,-91.187,-289.185,106.75
2.984,-0.801,-1.201,-62.317,-460.144,118.469
3.302,-0.591,-1.599,23.132,-660.095,110.229
3.282,-0.54,-1.844,78.613,-831.726,105.774
3.035,-0.879,-1.968,65.063,-955.078,127.075
2.507,-1.134,-1.994,41.26,-1031.799,165.527
1.893,-1.115,-2.035,31.006,-1068.604,191.589
1.17,-0.997,-2.113,24.231,-1069.031,188.477
0.257,-0.82,-2.312,10.132,-1015.442,171.997
-0.882,-0.639,-2.758,5.92,-881.592,169.312
-1.275,-0.667,-1.981,15.076,-660.95,174.805
-1.052,-0.914,-1.092,47.607,-479.614,165.405
-0.871,-1.078,-0.548,59.875,-385.742,150.94
-0.968,-1.066,-0.372,53.284,-351.379,143.799
-1.075,-1.051,-0.358,44.556,-344.727,139.343
-1.077,-1.081,-0.086,44.006,-343.994,129.578
-1.086,-1.018,-0.073,44.556,-358.826,112.854
-1.336,-0.774,-0.088,38.574,-369.751,107.605
-3.036,-0.27,0.421,83.13,-353.76,122.681
-4.0,-0.355,-0.313,116.028,-331.909,228.088
-3.762,-1.731,-1.254,-65.552,-254.883,419.861
-1.963,-3.135,-1.154,-186.157,-105.042,439.758
-0.709,-2.894,-0.578,-122.803,22.461,224.426
-0.088,-1.611,-0.011,-0.671,66.589,-37.415
0.229,-0.699,0.234,31.128,73.242,-173.95
0.236,-0.46,0.29,18.188,73.914,-184.509
0.141,-0.892,0.548,18.494,79.346,-137.146
0.113,-1.432,0.789,23.743,63.965,-106.262
0.235,-1.563,0.735,16.907,22.339,-88.074
0.197,-1.374,0.64,-0.854,-10.803,-67.383
0.115,-1.11,0.497,-14.771,-29.114,-46.631
0.116,-0.909,0.408,-20.325,-33.142,-20.935
0.073,-0.745,0.427,-20.874,-26.367,4.822
-0.011,-0.68,0.507,-18.555,-22.095,27.222
-0.137,-0.686,0.573,-14.099,-25.513,41.077
-0.277,-0.71,0.57,-11.169,-34.546,46.631
-0.397,-0.739,0.51,-10.681,-42.114,43.335
-0.462,-0.779,0.403,-11.963,-40.833,32.898
-0.452,-0.84,0.3,-12.451,-28.32,17.395
-0.403,-0.856,0.24,-10.315,-5.554,-2.258
-0.344,-0.767,0.195,-5.188,22.278,-21.484
-0.186,-0.735,0.414,-1.221,50.537,-29.602
-0.168,-0.816,0.313,0.061,58.044,-26.306
-0.138,-0.683,0.396,0.854,67.932,-19.531
-0.046,-0.674,0.29,2.075,76.66,3.296
0.056,-1.072,0.577,0.793,82.581,25.146
-0.001,-1.03,0.55,7.69,71.35,10.193
0.057,-0.929,0.7,6.226,50.72,10.01
0.125,-0.976,0.999,2.93,21.057,11.108
0.147,-0.946,0.884,-0.122,-47.241,6.958
-0.001,-0.886,0.659,-6.836,-109.558,11.108
-0.205,-0.877,0.335,-12.878,-142.761,17.151
-0.4,-0.907,-0.013,-13.794,-136.536,19.409
-0.522,-0.977,-0.1,-9.155,-86.243,14.587
-0.478,-1.063,0.084,0.244,-18.066,0.732
-0.336,-0.959,0.393,6.653,32.715,-16.785
-0.178,-0.818,0.49,3.906,52.551,-20.142
-0.067,-0.981,0.652,-1.099,55.847,-13.123
-0.041,-0.962,0.622,0.061,38.574,-21.057
-0.039,-0.853,0.559,-0.366,20.752,-25.269
-0.061,-0.801,0.551,-1.892,12.756,-21.545
-0.052,-0.857,0.582,-1.282,7.263,-12.939
-0.075,-0.887,0.55,0.427,-0.427,-8.545
-0.109,-0.888,0.498,-0.977,-5.676,-3.54
-0.15,-0.897,0.487,-2.441,-5.188,0.244
-0.16,-0.874,0.478,-1.648,-2.991,-0.244
-0.143,-0.847,0.49,-1.831,-0.427,-0.488
-0.151,-0.825,0.479,-2.808,1.526,1.16
-0.166,-0.828,0.489,-1.526,3.052,2.869
-0.151,-0.861,0.529,0.183,3.662,3.967
-0.149,-0.901,0.525,0.061,-0.122,5.127
-0.149,-0.937,0.516,-0.854,-4.578,2.93
-0.156,-0.953,0.504,-1.648,-8.667,-1.831
-0.172,-0.939,0.475,-2.38,-11.292,-6.165
-0.174,-0.924,0.461,-2.563,-10.62,-9.644
-0.162,-0.911,0.458,-1.831,-8.667,-11.963
-0.158,-0.889,0.452,-1.587,-7.08,-11.353
-0.175,-0.884,0.436,-1.892,-5.676,-8.057
-0.182,-0.895,0.448,-2.258,-3.235,-5.249
-0.171,-0.887,0.456,-1.77,-0.916,-4.456
-0.168,-0.879,0.466,-1.526,1.099,-3.479
-0.165,-0.882,0.474,-1.77,2.991,-2.38
-0.158,-0.886,0.482,-2.014,4.15,-2.014
-0.146,-0.888,0.494,-1.404,4.7,-2.319
-0.131,-0.891,0.513,-1.16,3.967,-3.357
-0.115,-0.899,0.533,-1.099,0.0,-4.395
-0.107,-0.872,0.53,-1.465,-6.958,-5.188
-0.119,-0.838,0.497,-1.648,-15.564,-4.578
-0.153,-0.859,0.464,-1.648,-20.996,-2.075
-0.181,-0.886,0.441,-1.343,-21.912,0.061
-0.207,-0.898,0.425,-1.404,-18.86,0.061
-0.218,-0.894,0.419,-1.648,-12.756,-1.831
-0.217,-0.89,0.422,-1.404,-5.066,-3.784
-0.205,-0.887,0.434,-0.916,3.174,-4.944
-0.177,-0.881,0.461,-1.16,10.559,-5.127
-0.152,-0.877,0.479,-1.282,14.648,-5.127
-0.131,-0.884,0.516,-1.038,15.32,-5.493
-0.127,-0.875,0.535,-0.427,11.658,-5.981
-0.129,-0.868,0.537,-0.427,5.798,-5.31
-0.131,-0.885,0.534,-1.16,-0.061,-3.784
-0.136,-0.897,0.518,-2.075,-5.676,-2.319
-0.148,-0.89,0.494,-2.808,-9.888,-1.404
-0.166,-0.872,0.467,-2.808,-11.963,-0.488
-0.171,-0.879,0.462,-2.563,-10.315,1.16
-0.176,-0.899,0.469,-2.319,-6.897,2.441
-0.177,-0.904,0.477,-2.258,-3.723,2.075
-0.171,-0.9,0.482,-2.258,-0.732,0.183
-0.161,-0.902,0.494,-2.258,1.587,-1.648
-0.155,-0.9,0.506,-2.441,2.258,-3.296
-0.152,-0.892,0.503,-2.808,1.465,-4.639
-0.153,-0.891,0.501,-2.991,-0.427,-5.249
-0.152,-0.891,0.49,-3.113,-2.441,-5.249
-0.15,-0.892,0.485,-3.052,-3.845,-4.883
-0.152,-0.889,0.489,-2.93,-4.7,-4.883
-0.158,-0.866,0.483,-2.991,-5.554,-4.578
1.527,-1.362,-0.326,15.991,-201.172,126.16
1.856,-1.482,-0.505,41.626,-301.514,171.204
2.193,-1.616,-0.807,84.839,-425.659,198.669
2.454,-1.724,-1.154,122.07,-559.875,210.999
2.64,-1.849,-1.524,121.46,-697.449,212.341
2.448,-1.97,-1.719,89.6,-805.481,205.688
2.164,-1.895,-1.852,50.781,-872.253,190.979
1.767,-1.626,-1.92,17.944,-899.17,163.086
1.285,-1.265,-1.856,-12.268,-891.968,133.057
0.734,-0.865,-1.708,-27.405,-860.046,109.07
0.178,-0.484,-1.612,-22.217,-806.396,91.614
-0.253,-0.271,-1.584,-5.005,-722.961,91.858
-0.586,-0.2,-1.32,6.47,-612.305,114.197
-0.771,-0.191,-0.893,-1.892,-510.437,148.254
-0.817,-0.287,-0.492,4.639,-450.745,181.885
-0.916,-0.369,-0.261,24.231,-437.439,200.623
-1.128,-0.327,-0.145,35.217,-450.684,210.51
-1.405,-0.269,-0.142,43.335,-465.027,223.572
-1.639,-0.369,-0.194,49.316,-457.825,237.976
-1.839,-0.68,-0.207,47.363,-421.448,242.981
-1.942,-1.017,-0.127,39.49,-365.723,236.023
-2.131,-1.019,0.156,38.757,-309.021,216.736
-3.142,-0.604,-0.025,74.158,-260.986,197.327
-3.997,-0.626,-0.215,101.379,-174.927,203.674
-3.315,-1.582,-0.076,43.823,-57.19,266.113
-1.561,-2.361,0.363,-55.481,15.991,277.222
-0.632,-2.234,0.371,-87.097,11.047,170.654
-0.578,-1.464,-0.169,-43.457,-34.485,19.226
-0.49,-0.965,-0.483,-19.897,-29.907,-75.195
-0.164,-0.49,-0.323,-25.085,31.982,-111.084
0.013,-0.608,-0.125,-17.944,105.225,-86.792
-0.009,-1.196,0.118,-5.188,172.791,-62.378
0.21,-1.517,0.474,6.104,211.67,-62.744
0.469,-1.757,1.008,14.343,209.473,-72.876
0.523,-1.75,0.934,16.541,145.325,-114.075
0.469,-1.411,0.885,9.094,73.425,-163.513
0.419,-0.861,0.803,-0.854,15.503,-174.622
0.378,-0.527,0.695,-12.146,-26.245,-145.63
0.265,-0.522,0.598,-15.564,-53.467,-105.042
0.138,-0.638,0.534,-9.521,-70.19,-66.101
0.007,-0.725,0.495,-2.991,-76.782,-35.278
-0.132,-0.737,0.428,-1.526,-73.425,-12.939
-0.231,-0.734,0.394,-2.075,-57.129,6.165
-0.306,-0.753,0.386,-1.099,-31.677,18.616
-0.388,-0.754,0.358,1.099,-3.357,23.804
-0.246,-0.808,0.501,2.319,27.222,29.297
-0.243,-0.839,0.694,3.296,45.471,26.611
-0.226,-0.853,0.633,2.869,40.222,19.165
-0.245,-0.851,0.58,0.061,28.931,12.512
-0.236,-0.937,0.61,-0.61,28.076,0.061
-0.187,-0.931,0.551,-0.793,17.273,-15.381
-0.145,-0.937,0.604,-0.977,11.902,-30.396
-0.169,-0.789,0.519,-2.319,-1.282,-42.175
-0.157,-0.726,0.493,-5.188,-8.606,-35.95
-0.184,-0.809,0.501,-5.249,-9.46,-25.208
-0.224,-0.9,0.474,-1.892,-11.719,-20.325
-0.23,-0.931,0.493,0.366,-11.536,-16.663
-0.242,-0.92,0.495,-1.221,-10.132,-13.428
-0.259,-0.88,0.497,-4.395,-7.385,-9.949
-0.243,-0.827,0.498,-5.31,-4.089,-6.531
-0.231,-0.809,0.486,-4.333,-0.244,-3.357
-0.214,-0.831,0.499,-2.93,5.432,-1.16
-0.189,-0.865,0.499,-2.441,10.315,0.366
-0.183,-0.891,0.491,-2.38,15.259,-0.549
-0.167,-0.904,0.493,-2.502,21.667,-3.906
-0.151,-0.897,0.491,-2.197,27.527,-8.728
-0.133,-0.876,0.505,-2.319,33.081,-13.306
-0.119,-0.846,0.521,-1.77,37.109,-15.808
-0.102,-0.821,0.542,-0.244,39.185,-15.442
-0.106,-0.802,0.563,0.977,38.696,-11.475
-0.097,-0.807,0.604,1.465,34.851,-5.554
-0.109,-0.819,0.624,1.526,26.367,-0.916
-0.124,-0.828,0.631,1.099,15.686,2.93
-0.138,-0.852,0.631,0.427,5.188,5.432
-0.151,-0.864,0.61,-0.488,-4.456,6.897
-0.163,-0.863,0.584,-1.526,-11.78,7.629
-0.175,-0.863,0.558,-2.014,-16.296,7.69
-0.176,-0.876,0.542,-2.075,-17.883,7.324
-0.18,-0.891,0.536,-2.136,-17.578,5.981
-0.191,-0.893,0.523,-2.197,-16.785,3.479
-0.203,-0.883,0.515,-2.38,-14.587,0.244
-0.207,-0.872,0.514,-2.502,-10.681,-2.991
-0.202,-0.869,0.52,-2.563,-5.92,-5.31
-0.187,-0.865,0.528,-3.235,-2.197,-6.958
-0.167,-0.853,0.536,-3.723,-0.366,-8.545
-0.154,-0.832,0.54,-3.052,-0.671,-9.521
-0.141,-0.823,0.542,-2.319,-2.686,-9.338
-0.138,-0.83,0.549,-2.258,-5.432,-8.423
-0.154,-0.83,0.558,-2.258,-9.216,-6.592
-0.168,-0.829,0.556,-2.258,-13.0,-4.822
-0.18,-0.832,0.548,-2.441,-15.259,-2.991
-0.186,-0.838,0.54,-2.869,-15.259,-0.732
-0.192,-0.842,0.532,-3.296,-13.794,1.282
-0.185,-0.843,0.529,-3.723,-11.658,2.136
-0.183,-0.843,0.522,-4.028,-9.277,1.77
-0.168,-0.849,0.53,-3.906,-7.019,0.61
-0.162,-0.836,0.515,-3.174,-6.226,-1.221
-0.16,-0.816,0.514,-2.686,-5.066,-1.709
-0.168,-0.811,0.517,-1.587,-3.906,-1.16
-0.176,-0.823,0.53,-0.549,-2.258,-0.732
-0.182,-0.834,0.545,0.061,-0.61,-0.183
-0.188,-0.838,0.548,0.305,0.427,-0.061
-0.185,-0.849,0.554,0.0,1.648,-0.366
-0.18,-0.858,0.552,-0.488,2.747,-0.916
-0.169,-0.864,0.552,-1.587,3.662,-1.709
-0.158,-0.866,0.552,-2.319,3.967,-2.258
-0.149,-0.861,0.55,-2.258,3.296,-2.747
-0.142,-0.856,0.545,-2.38,1.953,-2.563
-0.148,-0.857,0.548,-2.747,-0.366,-2.014
-0.158,-0.853,0.547,-2.197,-3.113,-1.587
-0.172,-0.849,0.544,-1.465,-5.615,-1.77
-0.188,-0.845,0.537,-1.038,-7.568,-1.892
-0.198,-0.85,0.529,-0.671,-8.057,-1.831
-0.203,-0.857,0.525,-0.488,-6.836,-2.136
-0.203,-0.865,0.528,-0.305,-4.7,-2.014
-0.197,-0.876,0.536,-0.671,-2.563,-1.77
-0.187,-0.88,0.541,-1.404,-0.488,-2.686
-0.181,-0.872,0.544,-1.77,0.244,-4.456
-0.171,-0.865,0.541,-2.197,0.427,-5.737
1.723,-1.117,-0.515,-57.495,-72.937,6.714
2.072,-0.925,-0.816,-82.092,-140.259,22.644
2.419,-0.737,-1.142,-75.378,-254.15,39.795
2.778,-0.663,-1.479,-30.823,-405.579,53.101
3.024,-0.561,-1.734,26.245,-571.228,52.429
3.155,-0.559,-1.96,84.412,-738.586,53.589
3.033,-0.76,-2.125,107.849,-903.198,69.824
2.74,-0.916,-2.283,87.463,-1048.645,83.557
2.234,-0.877,-2.496,72.51,-1152.527,79.041
1.544,-0.747,-2.628,65.002,-1198.486,66.284
0.484,-0.765,-2.921,48.401,-1178.04,67.871
-0.885,-0.773,-3.424,26.062,-1041.016,92.285
-1.364,-1.112,-2.274,39.612,-807.739,135.193
-1.426,-1.371,-1.643,70.251,-639.709,152.649
-1.49,-1.508,-1.08,79.041,-518.982,158.508
-1.492,-1.604,-0.509,76.355,-441.223,158.386
-1.388,-1.643,-0.219,63.599,-411.926,150.635
-1.402,-1.548,-0.245,46.021,-416.382,134.155
-1.844,-0.788,0.397,41.077,-417.358,117.737
-3.761,-0.48,0.7,147.461,-422.424,140.991
-4.0,-0.465,-1.237,51.27,-445.312,292.358
-3.926,-2.122,-1.774,-125.671,-324.463,419.312
-2.19,-3.346,-1.029,-156.86,-115.112,346.313
-0.881,-2.86,-0.543,-82.214,-7.751,116.089
-0.005,-1.737,-0.21,-13.184,16.541,-110.413
0.339,-0.952,0.045,3.906,23.682,-221.619
0.417,-0.526,0.094,4.944,25.879,-243.53
0.428,-0.567,0.218,9.888,36.194,-209.9
0.298,-0.971,0.427,12.695,48.889,-158.142
0.347,-1.338,0.568,8.728,45.776,-110.657
0.441,-1.417,0.573,-1.709,28.748,-77.026
0.489,-1.242,0.553,-17.761,8.484,-55.786
0.389,-0.842,0.518,-27.771,-16.479,-42.48
0.312,-0.528,0.446,-24.902,-44.922,-20.325
0.17,-0.468,0.428,-21.423,-60.791,18.433
-0.113,-0.551,0.427,-14.648,-71.899,50.903
-0.337,-0.643,0.417,-7.935,-79.895,67.2
-0.544,-0.708,0.359,-4.211,-82.153,68.481
-0.711,-0.791,0.2,-4.272,-75.684,56.946
-0.799,-0.91,0.006,-4.395,-51.575,34.485
-0.913,-0.961,-0.333,-1.587,-6.104,2.93
-0.615,-1.024,-0.121,3.662,71.472,-27.283
-0.229,-0.949,0.313,7.324,134.583,-48.584
-0.015,-0.967,0.415,-0.427,138.977,-50.11
0.252,-1.002,0.859,-2.869,119.385,-46.692
0.404,-0.87,0.935,-4.7,43.152,-36.56
0.388,-1.016,0.767,-10.498,-48.34,-8.728
0.115,-1.067,0.396,-14.709,-121.521,6.897
-0.172,-1.034,-0.088,-17.822,-145.447,22.095
-0.388,-1.084,-0.165,-18.005,-104.187,32.288
-0.401,-1.097,-0.005,-7.935,-42.542,28.259
-0.368,-1.138,0.262,-1.587,3.174,18.311
-0.309,-0.885,0.346,-1.099,23.926,7.568
-0.279,-0.994,0.448,-8.057,26.489,15.076
-0.287,-1.084,0.37,-6.897,16.907,1.404
-0.254,-0.981,0.342,-5.371,8.057,-15.564
-0.221,-0.882,0.334,-4.822,7.935,-29.358
-0.172,-0.856,0.388,-2.808,9.949,-35.461
-0.164,-0.874,0.403,1.038,8.24,-38.879
-0.165,-0.918,0.407,2.869,6.897,-39.49
-0.152,-0.971,0.443,1.709,9.521,-37.048
-0.118,-0.994,0.46,-2.014,10.254,-33.569
-0.113,-0.996,0.434,-7.324,8.911,-26.672
-0.088,-0.955,0.44,-11.841,9.033,-18.616
-0.087,-0.902,0.407,-15.747,7.08,-8.484
-0.092,-0.837,0.423,-16.785,5.92,2.686
-0.099,-0.81,0.4,-15.625,2.014,14.282
-0.131,-0.822,0.41,-13.855,-3.174,23.376
-0.151,-0.847,0.449,-11.23,-9.155,28.015
-0.196,-0.861,0.435,-9.338,-20.386,26.428
-0.219,-0.828,0.411,-6.897,-28.625,20.874
-0.246,-0.862,0.353,-5.127,-32.654,14.893
-0.256,-0.914,0.313,-1.709,-29.114,4.761
-0.266,-0.962,0.286,1.831,-20.203,-6.836
-0.248,-0.97,0.331,4.761,-7.568,-19.348
-0.225,-0.951,0.374,6.165,1.038,-26.733
-0.216,-0.937,0.383,4.761,4.761,-28.015
-0.204,-0.955,0.375,2.808,6.47,-23.621
-0.179,-0.98,0.38,0.671,7.507,-17.883
-0.147,-0.987,0.404,-1.16,7.019,-12.573
-0.133,-0.958,0.432,-2.991,3.54,-6.714
-0.134,-0.933,0.443,-4.883,-2.93,-0.488
-0.157,-0.92,0.444,-6.348,-10.376,4.761
-0.187,-0.919,0.422,-6.348,-17.334,8.484
-0.208,-0.93,0.392,-6.409,-21.057,9.46
-0.219,-0.943,0.366,-5.92,-20.996,6.958
-0.226,-0.94,0.341,-5.127,-17.944,1.77
-0.23,-0.921,0.338,-4.15,-13.0,-4.578
-0.229,-0.889,0.353,-2.38,-7.629,-10.132
-0.214,-0.867,0.384,-0.244,-3.845,-12.756
-0.201,-0.86,0.4,1.282,-3.357,-12.573
-0.194,-0.876,0.407,1.526,-4.211,-9.521
-0.19,-0.888,0.409,1.282,-5.981,-5.981
-0.194,-0.886,0.393,1.221,-8.057,-3.357
-0.201,-0.905,0.399,0.366,-8.911,-1.404
-0.208,-0.925,0.4,-0.305,-9.277,-0.732
-0.216,-0.933,0.397,-1.343,-9.338,-0.122
-0.219,-0.934,0.379,-2.686,-8.85,-0.305
-0.22,-0.93,0.363,-3.235,-6.775,-0.244
-0.219,-0.938,0.364,-3.235,-3.418,-0.305
-0.215,-0.941,0.375,-3.052,0.0,-0.183
-0.211,-0.941,0.389,-3.235,2.197,-0.366
-0.209,-0.933,0.392,-3.479,2.441,-1.404
-0.206,-0.933,0.396,-3.601,2.014,-2.38
-0.197,-0.939,0.403,-3.601,1.648,-2.991
-0.194,-0.937,0.404,-3.967,0.488,-4.272
-0.189,-0.92,0.393,-4.456,-1.16,-5.493
-0.192,-0.9,0.396,-4.15,-2.747,-5.371
-0.197,-0.896,0.401,-3.723,-3.967,-3.174
-0.197,-0.903,0.391,-4.089,-5.615,-0.183
-0.203,-0.907,0.378,-3.906,-6.897,1.404
-0.209,-0.907,0.375,-3.418,-7.019,1.526
-0.218,-0.905,0.379,-2.502,-6.042,1.16
-0.222,-0.91,0.385,-1.892,-3.723,0.427
-0.216,-0.919,0.392,-1.587,-1.465,-0.427
-0.207,-0.924,0.401,-1.404,0.488,-1.953
-0.2,-0.922,0.411,-1.465,1.343,-4.15
-0.195,-0.913,0.411,-1.709,1.465,-5.432
-0.191,-0.917,0.407,-1.831,1.099,-5.249
1.712,-1.068,0.023,-57.556,-96.924,41.992
1.933,-1.123,-0.141,-65.002,-174.377,52.734
2.245,-1.113,-0.407,-73.303,-284.241,63.843
2.665,-0.981,-0.744,-70.007,-426.819,73.059
3.012,-0.799,-1.046,-41.87,-588.562,73.303
3.17,-0.948,-1.257,-13.245,-751.892,75.195
3.086,-1.072,-1.52,-20.142,-891.479,74.158
2.694,-1.093,-1.738,-17.822,-997.131,70.496
2.244,-1.023,-1.897,-4.944,-1056.702,68.726
1.731,-0.931,-1.97,-5.188,-1065.552,75.989
1.115,-0.829,-1.89,-17.395,-1034.18,97.351
0.405,-0.686,-1.815,-22.339,-973.206,132.08
-0.306,-0.618,-1.966,-20.081,-872.009,168.701
-0.852,-0.668,-1.976,-17.883,-711.609,204.407
-0.902,-0.909,-1.384,-4.456,-523.621,228.027
-0.727,-1.105,-0.82,12.817,-382.874,221.191
-0.675,-1.074,-0.504,15.991,-310.242,196.472
-0.743,-0.914,-0.381,13.123,-285.156,174.316
-0.838,-0.85,-0.336,13.489,-284.058,153.992
-0.874,-0.844,-0.19,17.639,-293.396,131.226
-0.984,-0.642,0.003,19.714,-312.683,118.469
-2.242,-0.032,0.72,54.199,-340.21,135.01
-3.842,-0.036,0.224,96.619,-407.349,252.808
-4.0,-0.978,-2.432,-105.53,-451.355,467.163
-3.107,-2.559,-2.303,-270.447,-253.174,527.039
-1.471,-3.158,-1.306,-181.458,-18.311,378.967
-0.146,-2.031,-0.443,11.414,81.543,76.111
0.345,-1.217,0.449,84.412,122.314,-142.273
-0.014,-0.598,0.615,59.692,110.046,-202.759
0.02,-0.333,0.273,45.532,87.219,-144.104
0.289,-1.414,0.413,32.104,113.647,-45.227
0.225,-2.336,0.91,23.621,139.221,-40.344
0.466,-2.051,0.898,24.292,98.816,-81.299
0.599,-1.251,0.864,11.536,48.462,-98.206
0.5,-0.7,0.819,-8.911,6.165,-65.369
0.382,-0.619,0.727,-20.02,-36.56,5.066
0.179,-0.842,0.625,-24.17,-75.745,63.049
-0.115,-0.974,0.522,-26.794,-104.004,91.553
-0.417,-0.923,0.438,-27.527,-116.577,95.154
-0.635,-0.835,0.333,-28.32,-113.586,81.177
-0.724,-0.799,0.217,-28.381,-94.727,58.899
-0.713,-0.793,0.146,-23.682,-60.12,31.799
-0.595,-0.782,0.161,-15.93,-17.151,1.831
-0.416,-0.768,0.292,-6.836,22.522,-25.879
-0.272,-0.769,0.397,0.671,46.997,-46.448
-0.2,-0.73,0.412,4.944,57.495,-57.373
-0.08,-0.699,0.415,6.104,66.528,-54.688
0.003,-0.746,0.527,7.69,71.106,-46.326
0.224,-0.904,0.598,9.888,59.692,-35.95
0.208,-1.066,0.644,9.399,41.992,-28.87
0.078,-0.869,0.552,9.644,13.733,-35.4
0.109,-0.729,0.642,8.179,-3.906,-18.799
0.058,-0.853,0.673,4.944,-25.391,5.249
-0.128,-0.899,0.457,1.77,-55.481,25.452
-0.324,-0.94,0.238,-3.357,-64.148,44.006
-0.342,-1.174,0.33,-6.958,-45.471,48.767
-0.352,-1.176,0.337,-4.15,-31.067,27.893
-0.382,-0.976,0.272,-2.686,-21.851,4.761
-0.385,-0.863,0.313,-5.005,-2.563,-5.005
-0.295,-0.855,0.368,-3.662,15.442,-10.132
-0.211,-0.906,0.447,0.488,27.161,-15.442
-0.156,-0.976,0.544,3.296,30.64,-23.621
-0.12,-0.949,0.563,4.15,24.17,-32.654
-0.078,-0.91,0.603,2.441,15.259,-36.072
-0.064,-0.862,0.603,0.122,3.967,-34.424
-0.062,-0.823,0.555,-2.502,-7.874,-26.611
-0.067,-0.827,0.518,-4.578,-14.648,-15.198
-0.075,-0.838,0.491,-5.371,-16.602,-5.981
-0.117,-0.825,0.464,-5.188,-15.503,0.488
-0.159,-0.826,0.471,-5.493,-10.681,6.409
-0.198,-0.833,0.455,-6.042,-4.761,11.353
-0.224,-0.827,0.428,-6.226,2.991,13.855
-0.217,-0.831,0.452,-5.31,13.123,14.16
-0.197,-0.824,0.483,-3.723,19.592,12.085
-0.164,-0.845,0.53,-2.625,20.935,10.437
-0.147,-0.888,0.576,-0.671,15.076,6.775
-0.136,-0.897,0.575,1.526,0.977,0.183
-0.119,-0.896,0.579,1.892,-14.282,-4.15
-0.11,-0.904,0.561,0.977,-29.907,-5.92
-0.143,-0.892,0.483,0.61,-43.762,-7.08
-0.193,-0.886,0.396,0.671,-48.462,-6.104
-0.236,-0.911,0.331,0.427,-40.222,-3.54
-0.266,-0.952,0.32,0.305,-21.79,-2.38
-0.258,-0.966,0.359,0.061,0.366,-3.784
-0.202,-0.976,0.447,-0.671,19.653,-5.493
-0.146,-0.962,0.513,-1.892,28.564,-8.057
-0.117,-0.91,0.548,-3.601,26.55,-9.705
-0.108,-0.869,0.567,-5.188,18.005,-7.751
-0.106,-0.85,0.552,-6.287,5.798,-3.113
-0.125,-0.841,0.506,-6.348,-5.737,1.77
-0.152,-0.861,0.467,-6.104,-13.123,5.859
-0.175,-0.892,0.449,-5.92,-15.808,7.996
-0.197,-0.899,0.433,-5.127,-15.259,6.653
-0.21,-0.893,0.434,-4.639,-11.963,3.784
-0.209,-0.886,0.455,-4.272,-7.141,1.16
-0.201,-0.88,0.479,-4.15,-3.601,-1.038
-0.189,-0.883,0.504,-3.906,-2.136,-3.113
-0.187,-0.874,0.5,-3.723,-2.808,-5.188
-0.191,-0.862,0.484,-4.089,-3.174,-6.287
-0.188,-0.851,0.481,-4.15,-1.648,-6.165
-0.176,-0.856,0.494,-3.784,0.244,-6.042
-0.182,-0.847,0.478,-3.479,0.427,-6.287
-0.183,-0.837,0.472,-3.357,1.953,-5.005
-0.161,-0.847,0.491,-2.808,3.54,-3.906
-0.159,-0.846,0.487,-1.648,2.38,-3.845
-0.177,-0.836,0.481,-1.099,0.61,-1.831
-0.18,-0.863,0.489,-1.221,0.732,1.404
-0.176,-0.899,0.485,-1.953,0.732,3.967
-0.168,-0.917,0.477,-3.235,1.404,4.822
-0.159,-0.914,0.486,-4.089,3.479,3.296
-0.159,-0.889,0.493,-3.296,5.188,1.038
-0.154,-0.881,0.501,-3.052,6.531,1.038
-0.141,-0.89,0.522,-3.723,6.775,2.319
-0.148,-0.882,0.522,-3.113,4.456,2.625
-0.165,-0.871,0.517,-2.136,0.793,2.747
-0.171,-0.886,0.528,-2.014,-2.441,3.296
-0.18,-0.895,0.509,-2.075,-6.592,1.892
-0.194,-0.892,0.48,-1.892,-10.071,-0.977
-0.203,-0.887,0.463,-1.77,-10.254,-4.517
1.12,-1.672,-0.57,-100.159,-8.423,-11.902
1.427,-1.876,-0.683,-170.654,-33.508,-22.766
1.7,-1.969,-0.738,-237.0,-95.215,-23.132
1.917,-1.964,-0.706,-272.217,-187.5,-18.005
2.18,-1.854,-0.646,-249.451,-304.077,-14.954
2.226,-1.412,-0.724,-195.862,-430.786,-12.024
2.281,-0.995,-0.814,-143.494,-564.087,12.268
2.333,-0.704,-0.999,-86.609,-708.496,48.645
2.253,-0.495,-1.25,-34.302,-850.281,78.125
2.146,-0.367,-1.475,2.502,-962.219,112.183
1.95,-0.363,-1.648,26.001,-1032.043,162.048
1.759,-0.55,-1.816,38.208,-1068.481,234.741
1.476,-0.904,-1.928,40.1,-1091.492,305.908
0.915,-1.158,-1.885,39.368,-1094.299,354.309
0.108,-1.187,-1.745,39.185,-1062.134,384.888
-0.639,-1.205,-1.567,32.898,-994.141,412.659
-1.383,-1.34,-1.72,1.282,-884.216,424.377
-1.895,-1.471,-1.874,-40.1,-718.811,399.78
-1.914,-1.403,-1.442,-49.072,-528.137,340.698
-2.062,-0.909,-0.734,-15.747,-389.893,245.605
-3.227,-0.361,-0.133,63.232,-321.899,169.922
-4.0,0.009,-0.656,81.238,-305.603,211.731
-3.95,-0.733,-1.655,-70.19,-254.639,298.279
-2.498,-2.018,-1.478,-134.216,-124.023,275.208
-0.953,-2.298,-0.901,-74.707,-1.831,150.085
-0.31,-1.524,-0.411,22.217,64.087,-20.752
-0.107,-0.743,-0.03,62.439,108.093,-120.117
0.171,-0.727,0.412,51.27,147.278,-111.816
0.29,-1.173,0.773,39.49,158.081,-69.153
0.464,-1.533,0.914,30.334,130.188,-43.152
0.687,-1.465,0.848,17.273,90.271,-45.776
0.682,-1.356,0.896,9.583,39.734,-83.862
0.713,-1.106,0.771,10.315,-10.742,-108.765
0.674,-0.936,0.646,14.404,-48.828,-100.403
0.554,-0.896,0.587,12.573,-77.271,-75.867
0.356,-0.876,0.552,11.047,-99.243,-48.462
0.173,-0.853,0.529,12.39,-115.417,-15.564
-0.05,-0.856,0.528,9.827,-125.488,17.639
-0.299,-0.87,0.518,6.836,-131.897,48.218
-0.534,-0.903,0.457,2.441,-135.803,72.815
-0.735,-0.958,0.296,-4.456,-133.972,87.524
-0.866,-1.02,0.084,-14.221,-117.676,88.989
-0.885,-1.055,-0.036,-20.569,-82.092,74.707
-0.791,-1.008,-0.027,-20.203,-34.79,47.974
-0.599,-0.916,0.087,-15.625,10.437,20.081
-0.387,-0.868,0.268,-10.315,43.396,1.465
-0.128,-0.917,0.508,-7.019,55.176,-7.019
-0.004,-0.956,0.526,-5.432,39.429,-13.062
-0.125,-0.859,0.253,-5.493,18.066,-12.512
-0.063,-0.93,0.287,-4.883,27.405,-1.099
0.11,-1.135,0.519,0.427,39.734,3.845
-0.028,-1.159,0.248,2.747,23.132,-1.221
-0.151,-1.24,0.223,2.93,32.349,-9.521
-0.116,-1.054,0.581,5.554,52.429,-28.931
-0.016,-0.766,0.604,6.165,35.095,-28.809
-0.125,-0.703,0.429,-2.319,8.545,-2.075
-0.256,-0.891,0.389,-8.24,2.686,25.33
-0.202,-1.052,0.502,-5.31,1.77,25.391
-0.177,-0.998,0.47,-1.221,-9.766,5.615
-0.212,-0.912,0.476,-2.869,-18.921,-7.996
-0.193,-0.857,0.532,-4.333,-23.926,-15.808
-0.113,-0.846,0.559,-3.479,-32.288,-19.104
-0.114,-0.871,0.441,-4.211,-42.908,-16.541
-0.201,-0.879,0.29,-5.92,-40.344,-11.597
-0.213,-0.885,0.278,-4.761,-18.738,-9.521
-0.175,-0.898,0.359,-1.77,7.751,-11.047
-0.14,-0.871,0.428,-0.305,25.696,-12.573
-0.13,-0.833,0.487,-0.549,34.973,-9.46
-0.098,-0.82,0.539,-1.648,35.156,-3.54
-0.064,-0.828,0.578,-2.38,26.917,2.93
-0.07,-0.827,0.571,-2.502,11.963,8.606
-0.095,-0.823,0.541,-2.38,-4.089,14.832
-0.115,-0.856,0.519,-2.441,-17.334,19.714
-0.123,-0.92,0.508,-2.441,-28.687,22.156
-0.143,-0.962,0.47,-2.197,-38.147,20.508
-0.175,-0.97,0.427,-2.075,-44.006,15.564
-0.209,-0.972,0.381,-2.197,-43.579,10.315
-0.236,-0.976,0.353,-2.136,-36.682,5.737
-0.239,-0.987,0.357,-2.319,-25.391,1.16
-0.223,-0.99,0.377,-2.502,-13.672,-3.662
-0.199,-0.973,0.402,-2.747,-4.761,-7.874
-0.173,-0.942,0.43,-3.296,0.488,-11.108
-0.153,-0.919,0.455,-3.418,1.709,-12.573
-0.139,-0.9,0.466,-3.418,-0.427,-11.78
-0.129,-0.892,0.458,-3.052,-3.845,-10.071
-0.131,-0.893,0.447,-2.502,-7.019,-8.362
-0.146,-0.901,0.445,-2.38,-8.911,-6.042
-0.161,-0.91,0.44,-2.747,-9.216,-3.906
-0.169,-0.911,0.435,-2.991,-8.301,-2.319
-0.174,-0.902,0.428,-3.174,-6.042,-1.709
-0.175,-0.903,0.431,-3.906,-2.441,-1.099
-0.179,-0.909,0.444,-4.333,1.282,-0.671
-0.177,-0.903,0.449,-4.456,3.723,-2.075
-0.18,-0.884,0.446,-3.967,4.578,-3.784
-0.184,-0.872,0.428,-3.784,5.31,-4.639
-0.203,-0.866,0.411,-3.052,7.812,-4.333
-0.202,-0.885,0.407,-2.747,13.245,-3.052
-0.188,-0.923,0.436,-2.563,19.409,-3.845
-0.151,-0.933,0.488,-1.648,22.522,-7.812
-0.121,-0.896,0.512,-0.977,18.738,-13.0
-0.114,-0.842,0.518,-0.793,10.62,-13.916
-0.109,-0.832,0.521,-0.977,1.648,-9.46
-0.11,-0.863,0.507,-1.282,-7.69,-4.15
-0.128,-0.893,0.482,-1.099,-16.479,-0.244
-0.156,-0.903,0.458,-1.16,-22.156,1.526
-0.181,-0.898,0.443,-1.465,-24.048,2.014
-0.196,-0.893,0.43,-1.648,-22.583,2.075
-0.199,-0.893,0.418,-1.892,-19.043,2.014
-0.198,-0.9,0.414,-2.319,-13.733,2.319
-0.188,-0.91,0.419,-2.625,-7.08,2.869
-0.174,-0.915,0.433,-2.808,-1.343,3.235
-0.161,-0.913,0.452,-2.808,2.563,2.808
-0.155,-0.898,0.472,-2.502,3.784,2.014
-0.147,-0.893,0.483,-2.136,2.075,1.404
-0.145,-0.901,0.485,-2.136,-1.343,1.099
-0.153,-0.906,0.475,-2.441,-5.066,1.282
-0.168,-0.9,0.452,-2.136,-8.362,0.61
-0.186,-0.896,0.428,-1.404,-9.216,-0.732
-0.197,-0.892,0.414,-0.488,-6.958,-1.709
1.562,-1.179,-0.456,-91.675,-108.398,27.466
2.016,-1.198,-0.776,-106.689,-191.04,52.002
2.381,-1.086,-1.034,-97.29,-305.969,70.068
2.785,-0.92,-1.328,-35.339,-446.411,78.613
3.139,-0.797,-1.68,45.227,-612.366,84.961
3.483,-1.013,-2.035,84.229,-803.406,100.22
3.532,-1.29,-2.317,68.42,-988.098,122.009
3.429,-1.28,-2.62,42.847,-1139.343,146.484
3.079,-0.999,-2.903,43.396,-1241.577,147.4
2.616,-0.733,-3.03,41.626,-1288.025,133.24
1.822,-0.46,-2.952,34.302,-1282.043,132.69
0.63,-0.216,-2.929,37.476,-1231.262,154.114
-0.69,-0.252,-3.324,38.635,-1109.68,190.43
-1.549,-0.447,-3.08,32.898,-868.225,232.727
-1.516,-0.948,-1.861,64.758,-603.088,249.817
-1.294,-1.242,-1.071,98.206,-441.345,215.088
-1.289,-1.22,-0.635,102.783,-370.178,170.593
-1.246,-1.027,-0.458,94.116,-352.722,130.31
-1.17,-0.86,-0.491,83.374,-358.032,97.29
-1.199,-0.674,-0.349,77.209,-358.093,77.698
-2.018,-0.04,0.103,90.454,-357.239,82.336
-3.398,-0.111,0.104,144.653,-375.671,169.25
-3.53,-1.228,-1.438,15.808,-386.353,390.198
-2.1,-2.991,-1.909,-162.109,-270.874,521.118
-0.954,-3.589,-1.21,-150.391,-99.06,391.357
-0.511,-2.157,-0.539,-14.221,-12.39,101.868
-0.154,-1.388,0.033,59.448,15.686,-82.031
-0.289,-1.146,0.216,38.757,27.344,-131.958
-0.402,-1.397,0.076,26.306,32.532,-116.333
-0.171,-1.676,0.272,20.569,61.768,-104.919
0.287,-1.631,0.641,16.235,84.351,-100.159
0.547,-1.568,0.647,-2.014,65.125,-83.313
0.532,-1.326,0.54,-16.052,36.743,-79.956
0.498,-0.983,0.505,-19.104,18.188,-83.313
0.408,-0.77,0.562,-14.465,3.906,-80.933
0.303,-0.693,0.608,-13.672,-8.179,-50.293
0.18,-0.743,0.631,-18.677,-24.597,-5.371
-0.004,-0.776,0.593,-24.231,-47.302,25.574
-0.173,-0.733,0.477,-26.123,-69.885,42.542
-0.308,-0.714,0.333,-28.809,-81.604,52.246
-0.417,-0.74,0.21,-31.921,-78.613,56.641
-0.483,-0.788,0.111,-30.823,-63.721,50.72
-0.476,-0.84,0.07,-25.635,-40.283,34.363
-0.411,-0.887,0.108,-17.883,-12.451,13.367
-0.315,-0.895,0.2,-10.986,12.756,-6.226
-0.198,-0.91,0.3,-6.531,30.518,-18.677
-0.085,-0.914,0.359,-3.906,39.185,-23.743
0.002,-0.886,0.377,-1.892,41.26,-21.79
0.061,-0.89,0.38,-0.183,41.809,-13.245
0.068,-0.949,0.386,2.258,41.565,-4.822
0.084,-1.03,0.484,5.554,38.635,-0.793
-0.02,-0.961,0.406,7.385,27.527,2.075
-0.056,-1.123,0.52,7.019,17.517,6.226
-0.189,-0.986,0.429,7.263,-0.671,-3.845
-0.215,-0.884,0.315,3.662,-11.047,0.0
-0.24,-0.977,0.355,-0.305,-7.019,4.822
-0.242,-0.98,0.301,0.977,-6.104,-0.549
-0.248,-0.95,0.269,3.174,-0.977,-7.996
-0.087,-1.129,0.604,5.066,8.85,-17.09
-0.147,-0.943,0.407,8.423,-5.554,-35.645
-0.126,-0.92,0.398,5.31,-9.277,-35.339
-0.097,-0.937,0.471,1.709,-1.16,-31.067
0.032,-0.964,0.529,1.404,-4.944,-25.757
0.015,-0.942,0.526,0.854,-15.32,-21.362
-0.044,-0.881,0.459,-1.587,-25.879,-14.038
-0.055,-0.874,0.471,-3.479,-27.893,-3.967
-0.081,-0.891,0.461,-3.54,-27.161,1.465
-0.149,-0.88,0.42,-2.991,-25.818,3.235
-0.217,-0.891,0.413,-2.38,-18.005,2.625
-0.238,-0.904,0.422,-1.282,-7.08,-2.075
-0.225,-0.866,0.431,0.549,2.686,-9.094
-0.17,-0.863,0.472,1.587,10.498,-13.855
-0.127,-0.864,0.501,1.831,11.353,-16.907
-0.078,-0.859,0.506,1.709,4.761,-15.869
-0.033,-0.911,0.549,1.404,-5.127,-11.719
-0.04,-0.93,0.517,1.404,-21.545,-9.338
-0.092,-0.918,0.419,-0.061,-36.438,-5.554
-0.177,-0.937,0.325,-2.136,-38.391,-0.549
-0.187,-1.014,0.328,-2.441,-28.137,1.221
-0.206,-1.047,0.384,-1.16,-15.808,-5.249
-0.203,-0.971,0.391,-1.465,-9.583,-13.794
-0.187,-0.899,0.396,-3.784,-5.066,-15.625
-0.167,-0.859,0.365,-4.7,-1.526,-13.367
-0.148,-0.867,0.346,-3.174,2.014,-9.338
-0.136,-0.912,0.389,-2.014,6.042,-6.226
-0.152,-0.931,0.409,-1.404,5.676,-6.226
-0.151,-0.922,0.459,-0.977,1.099,-8.484
-0.165,-0.896,0.446,-1.343,-6.714,-10.315
-0.181,-0.904,0.415,-2.563,-12.39,-8.911
-0.217,-0.861,0.376,-3.418,-14.648,-8.789
-0.177,-0.829,0.366,-4.028,-12.39,-6.042
-0.145,-0.89,0.404,-3.113,-7.263,-2.625
-0.152,-0.915,0.373,-0.671,-6.592,-3.845
-0.154,-0.917,0.418,0.671,-4.333,-5.615
-0.138,-0.904,0.474,0.793,-4.15,-6.165
-0.131,-0.881,0.475,-0.244,-10.193,-3.54
-0.131,-0.906,0.456,-2.625,-17.395,2.441
-0.159,-0.934,0.409,-4.272,-21.667,6.165
-0.186,-0.921,0.364,-4.944,-20.447,6.287
-0.201,-0.899,0.354,-5.127,-11.719,5.615
-0.2,-0.88,0.371,-5.432,0.427,6.47
-0.196,-0.875,0.396,-5.737,11.963,7.263
-0.173,-0.869,0.424,-5.005,20.203,6.592
-0.141,-0.854,0.455,-2.991,23.254,3.906
-0.123,-0.829,0.474,-0.549,19.348,0.671
-0.124,-0.823,0.468,2.258,10.559,-0.61
-0.139,-0.863,0.453,3.784,0.793,0.61
-0.163,-0.924,0.425,3.723,-7.385,2.319
-0.181,-0.976,0.391,2.93,-12.207,2.747
-0.184,-1.004,0.368,1.221,-11.902,1.892
-0.179,-1.001,0.363,-0.427,-7.385,1.099
-0.178,-0.979,0.366,-1.953,-1.831,0.732
-0.165,-0.969,0.392,-3.54,4.517,2.136
-0.15,-0.968,0.423,-4.578,8.85,3.357
-0.137,-0.963,0.444,-5.005,9.033,3.052
-0.137,-0.951,0.458,-5.066,6.714,1.831
-0.139,-0.94,0.462,-5.188,2.38,0.549
-0.147,-0.933,0.445,-5.127,-2.563,-0.732
-0.154,-0.934,0.43,-5.066,-5.92,-2.014
1.873,-0.658,-0.868,-87.891,-46.753,-39.917
2.314,-0.552,-1.132,-88.135,-121.46,-14.893
2.478,-0.439,-1.214,-69.641,-214.539,13.977
2.66,-0.385,-1.222,-34.668,-330.505,46.326
2.865,-0.505,-1.292,31.25,-495.605,63.477
3.096,-0.951,-1.491,90.271,-699.341,66.772
3.277,-1.096,-1.885,78.918,-895.569,73.425
3.259,-0.847,-2.342,60.242,-1060.059,70.679
3.135,-0.422,-2.786,78.979,-1184.631,42.969
2.835,-0.098,-3.099,94.299,-1253.174,17.029
2.246,-0.007,-3.164,82.581,-1268.921,28.076
1.493,-0.049,-3.085,69.58,-1247.314,75.806
0.667,-0.072,-3.088,85.876,-1190.308,138.794
-0.188,-0.344,-3.269,124.512,-1078.186,179.016
-0.876,-0.784,-3.053,146.729,-894.287,194.031
-1.135,-1.095,-2.239,135.803,-692.81,208.435
-1.128,-1.353,-1.373,127.441,-546.692,212.097
-1.37,-1.533,-0.957,134.949,-477.478,179.81
-1.696,-1.515,-0.952,134.338,-446.411,126.709
-1.696,-1.47,-0.92,122.803,-398.071,82.764
-1.682,-1.382,-0.874,101.44,-330.811,48.706
-2.378,-0.648,-0.088,98.572,-275.513,36.56
-3.919,-0.273,-0.327,123.352,-306.763,154.053
-3.6,-1.594,-2.084,15.625,-327.271,380.005
-1.559,-3.102,-2.33,-120.544,-198.608,450.5
-0.462,-2.632,-1.0,-139.221,-10.986,316.772
-0.099,-1.418,0.041,-7.935,36.804,93.872
-0.0,-1.194,0.148,50.293,0.977,-71.96
-0.433,-1.273,-0.121,57.19,-15.625,-125.305
-0.386,-1.504,0.094,51.147,26.672,-111.511
0.159,-1.838,0.622,37.781,74.341,-88.684
0.425,-2.019,0.583,17.212,63.904,-63.843
0.395,-1.718,0.399,-2.747,46.021,-60.791
0.545,-1.312,0.507,-8.118,46.082,-83.252
0.396,-1.067,0.582,-5.615,27.527,-100.83
0.195,-0.808,0.565,-6.836,6.592,-81.787
0.111,-0.721,0.597,-16.357,-12.634,-33.081
-0.015,-0.771,0.622,-29.236,-36.316,14.771
-0.163,-0.826,0.559,-32.471,-66.65,41.687
-0.271,-0.826,0.415,-32.776,-93.079,47.791
-0.362,-0.822,0.299,-31.006,-103.577,41.321
-0.432,-0.815,0.192,-26.917,-98.328,25.024
-0.444,-0.79,0.093,-20.264,-80.688,4.089
-0.425,-0.752,0.042,-12.634,-50.659,-15.808
-0.374,-0.757,0.065,-7.446,-13.184,-27.954
-0.286,-0.816,0.15,-3.906,22.522,-33.142
-0.175,-0.87,0.254,-1.404,48.828,-35.339
-0.079,-0.884,0.332,-0.732,62.012,-35.583
-0.023,-0.829,0.342,-1.099,63.904,-31.372
0.014,-0.813,0.361,-0.305,61.34,-21.851
0.051,-0.847,0.403,0.549,54.626,-9.888
0.05,-0.875,0.408,1.099,40.833,1.282
0.025,-0.93,0.422,0.549,24.17,11.475
-0.03,-0.995,0.475,1.526,3.54,15.381
-0.073,-0.982,0.441,3.967,-25.146,11.719
-0.155,-0.931,0.358,4.028,-49.866,10.071
-0.226,-0.911,0.264,2.625,-62.073,13.428
-0.303,-0.929,0.159,1.709,-58.777,17.944
-0.321,-0.957,0.123,2.502,-38.574,19.592
-0.281,-1.056,0.233,3.601,-9.033,18.066
-0.177,-1.19,0.422,4.822,10.559,7.507
-0.229,-0.941,0.269,4.272,12.39,-5.92
-0.164,-1.079,0.397,-0.61,23.987,-3.052
-0.096,-1.075,0.52,0.366,26.978,-16.296
-0.005,-0.902,0.519,3.723,12.939,-23.56
-0.032,-0.826,0.454,0.549,-3.052,-16.907
-0.055,-0.927,0.438,-3.784,-12.878,1.16
-0.113,-1.023,0.374,-4.761,-19.958,10.254
-0.177,-1.1,0.311,-5.92,-20.325,9.399
-0.247,-1.04,0.295,-7.08,-10.498,1.038
-0.228,-0.983,0.318,-7.385,2.869,-5.432
-0.212,-0.914,0.346,-6.836,12.39,-9.766
-0.179,-0.862,0.379,-6.653,16.113,-7.812
-0.117,-0.871,0.456,-6.348,14.648,-3.54
-0.083,-0.907,0.47,-4.883,3.174,-0.793
-0.114,-0.964,0.42,-3.052,-12.939,-2.014
-0.179,-0.953,0.337,-1.404,-23.804,-6.958
-0.189,-0.924,0.313,-0.122,-23.376,-10.01
-0.196,-0.927,0.293,-0.061,-17.09,-9.46
-0.217,-0.941,0.252,-1.282,-7.996,-5.92
-0.213,-0.97,0.256,-3.113,5.493,-2.686
-0.206,-0.957,0.266,-3.784,20.386,-2.93
-0.183,-0.921,0.277,-3.845,32.898,-3.906
-0.193,-0.892,0.293,-3.601,44.067,-4.15
-0.125,-0.896,0.39,-2.869,52.612,-3.54
-0.081,-0.908,0.505,-1.282,51.697,-4.517
0.005,-0.971,0.594,0.244,33.447,-8.118
-0.004,-0.937,0.575,1.953,3.601,-15.991
-0.018,-0.843,0.522,3.174,-27.1,-19.775
-0.062,-0.789,0.413,4.028,-49.866,-14.221
-0.127,-0.861,0.314,3.479,-59.204,-0.61
-0.197,-0.983,0.261,2.93,-53.711,11.108
-0.234,-1.064,0.262,1.77,-39.673,14.282
-0.267,-1.061,0.276,0.427,-24.048,9.705
-0.254,-1.013,0.31,-2.136,-9.705,3.723
-0.222,-0.953,0.351,-5.188,1.465,0.488
-0.178,-0.909,0.374,-5.737,6.775,-2.075
-0.153,-0.901,0.393,-5.188,7.568,-3.662
-0.142,-0.901,0.382,-4.028,5.554,-5.798
-0.15,-0.904,0.38,-1.953,4.089,-8.484
-0.158,-0.913,0.388,0.244,3.662,-10.132
-0.146,-0.94,0.396,0.549,3.357,-9.46
-0.134,-0.959,0.406,-0.244,2.441,-8.606
-0.134,-0.943,0.412,-0.305,-0.366,-8.057
-0.127,-0.922,0.408,-0.977,-4.578,-5.737
-0.13,-0.926,0.39,-2.319,-9.033,-0.916
-0.138,-0.947,0.364,-3.784,-12.085,4.456
-0.155,-0.954,0.342,-4.395,-12.573,5.798
-0.171,-0.943,0.335,-4.333,-10.132,4.211
-0.191,-0.924,0.341,-4.211,-6.287,2.319
-0.185,-0.92,0.353,-3.479,-2.563,0.366
-0.184,-0.917,0.371,-2.625,0.122,-1.709
-0.169,-0.921,0.385,-1.831,1.099,-3.296
-0.156,-0.927,0.395,-1.648,-0.305,-4.272
-0.145,-0.931,0.397,-1.282,-2.747,-4.272
-0.141,-0.942,0.392,-1.343,-5.371,-3.479
-0.15,-0.958,0.385,-1.77,-7.751,-1.892
-0.166,-0.971,0.369,-3.296,-8.667,0.061
-0.179,-0.97,0.348,-4.578,-7.263,1.526
1.678,-1.032,-0.424,-114.38,-74.646,-12.756
1.91,-0.956,-0.587,-127.93,-132.202,-12.939
2.254,-0.867,-0.742,-121.643,-216.492,-6.714
2.523,-0.816,-0.86,-98.755,-327.759,8.728
2.562,-0.742,-1.002,-67.627,-461.792,23.437
2.793,-0.769,-1.309,-30.823,-620.483,27.771
2.869,-0.757,-1.585,17.09,-780.457,31.86
2.827,-0.763,-1.843,53.711,-918.274,52.612
2.533,-0.795,-2.024,65.979,-1023.743,78.918
2.093,-0.763,-2.104,60.974,-1082.153,101.929
1.394,-0.606,-2.017,67.139,-1094.91,116.028
0.719,-0.529,-1.882,73.792,-1061.523,130.493
0.148,-0.608,-1.796,67.322,-987.488,149.475
-0.457,-0.784,-1.835,51.514,-878.54,158.813
-0.893,-0.835,-1.779,37.964,-745.422,145.752
-1.088,-0.697,-1.455,36.865,-606.14,119.69
-1.152,-0.633,-1.097,47.729,-492.676,96.008
-1.259,-0.579,-0.783,49.5,-419.739,81.238
-1.87,-0.079,0.005,59.753,-383.667,76.965
-3.992,0.168,0.416,162.109,-392.212,110.901
-4.0,-0.204,-1.466,100.586,-441.895,306.152
-3.993,-2.24,-1.977,-141.541,-339.661,511.047
-1.658,-3.815,-1.465,-182.861,-138.916,458.557
-0.638,-3.017,-0.684,-53.345,13.794,179.382
-0.31,-1.42,0.138,53.284,100.22,-95.398
0.204,-0.542,0.719,54.688,137.146,-210.632
0.512,-0.175,1.016,36.499,125.549,-223.083
0.707,-0.654,1.079,34.668,74.951,-154.602
0.957,-1.374,0.99,20.325,16.418,-92.59
0.888,-1.627,0.812,12.39,-52.002,-103.76
0.579,-1.343,0.434,20.264,-116.699,-157.776
0.449,-0.928,0.124,22.827,-126.221,-164.978
0.28,-0.8,0.189,18.127,-95.093,-124.939
0.083,-0.774,0.422,18.188,-72.205,-71.35
-0.146,-0.75,0.614,19.104,-77.209,-3.601
-0.442,-0.866,0.687,10.315,-104.248,68.97
-0.644,-1.074,0.517,-12.573,-144.531,124.023
-0.826,-1.155,0.142,-39.978,-175.842,138.367
-0.985,-0.986,-0.25,-50.781,-169.922,113.403
-0.948,-0.762,-0.351,-38.452,-116.699,72.571
-0.758,-0.673,-0.106,-15.015,-41.382,34.607
-0.578,-0.643,0.154,3.296,17.395,12.512
-0.285,-0.94,0.262,11.475,50.11,8.118
-0.267,-1.301,0.698,14.282,64.087,-8.301
0.007,-1.423,0.677,15.442,36.316,-44.8
-0.201,-1.066,0.373,4.883,-0.305,-69.214
-0.254,-0.792,0.194,-7.324,1.221,-55.42
-0.215,-0.657,0.304,-9.155,28.503,-22.278
0.038,-0.831,0.414,-5.737,39.917,20.203
0.115,-1.316,0.659,-5.554,31.616,41.138
-0.12,-1.261,0.602,-5.371,-9.766,16.541
-0.293,-0.717,0.345,-8.606,-51.819,-2.258
-0.52,-0.704,0.109,-15.259,-59.387,6.958
-0.628,-0.776,0.029,-7.935,-37.598,6.47
-0.482,-0.919,0.152,0.916,-1.282,3.235
-0.466,-1.034,0.183,4.211,25.818,-9.766
-0.461,-0.968,0.203,4.944,46.692,-27.039
-0.39,-0.882,0.279,5.615,67.871,-40.344
-0.222,-0.875,0.497,5.493,82.336,-42.725
-0.066,-0.871,0.631,4.272,73.547,-39.307
-0.03,-0.853,0.624,0.488,46.021,-32.349
-0.03,-0.824,0.604,-3.357,18.188,-22.339
-0.069,-0.819,0.537,-5.249,-4.578,-11.169
-0.123,-0.81,0.482,-5.249,-18.799,-3.357
-0.165,-0.751,0.468,-5.371,-24.475,4.578
-0.131,-0.691,0.568,-5.371,-25.879,16.052
-0.075,-0.723,0.672,-5.005,-37.598,29.724
-0.112,-0.798,0.621,-4.333,-64.697,38.147
-0.257,-0.867,0.368,-4.395,-89.661,38.635
-0.452,-0.923,0.099,-4.822,-85.51,32.41
-0.546,-0.932,0.02,-0.427,-47.791,19.287
-0.521,-0.914,0.13,7.263,1.221,4.822
-0.442,-0.897,0.281,10.62,41.565,-3.052
-0.349,-0.909,0.369,9.827,63.721,-4.883
-0.221,-0.975,0.476,8.362,68.42,-4.395
-0.143,-1.011,0.554,6.958,57.617,-6.042
-0.112,-1.013,0.571,5.066,34.241,-7.446
-0.126,-1.005,0.571,2.563,8.118,-6.042
-0.148,-1.004,0.556,-0.549,-15.93,-2.625
-0.183,-1.002,0.507,-3.662,-35.828,1.709
-0.224,-0.996,0.447,-7.019,-47.302,5.676
-0.269,-0.973,0.375,-9.338,-49.316,6.897
-0.32,-0.934,0.313,-9.521,-41.687,5.554
-0.337,-0.905,0.288,-8.484,-26.123,2.93
-0.33,-0.876,0.297,-6.653,-7.324,-0.305
-0.304,-0.848,0.328,-4.028,9.583,-3.784
-0.278,-0.839,0.38,-2.075,22.522,-6.104
-0.259,-0.835,0.433,-0.793,28.564,-7.812
-0.238,-0.818,0.465,0.488,27.588,-8.789
-0.207,-0.829,0.501,0.977,21.606,-8.667
-0.185,-0.846,0.525,1.953,11.475,-8.606
-0.178,-0.846,0.511,2.502,-1.16,-7.202
-0.188,-0.881,0.501,1.831,-12.634,-4.089
-0.212,-0.912,0.472,0.977,-22.339,-1.892
-0.238,-0.929,0.447,-0.427,-29.114,-0.061
-0.255,-0.911,0.4,-1.709,-31.677,0.671
-0.267,-0.878,0.355,-2.136,-29.602,1.831
-0.287,-0.859,0.337,-1.648,-22.583,3.723
-0.296,-0.865,0.344,-0.916,-12.817,5.92
-0.3,-0.891,0.375,-0.183,-4.272,7.08
-0.295,-0.911,0.404,0.122,1.343,5.371
-0.286,-0.897,0.422,-0.305,3.357,1.526
-0.266,-0.869,0.424,0.0,2.136,-2.197
-0.24,-0.864,0.422,1.221,-0.977,-4.944
-0.225,-0.879,0.418,2.136,-4.456,-5.493
-0.227,-0.897,0.409,2.625,-8.423,-4.395
-0.235,-0.92,0.4,2.563,-11.353,-2.563
-0.241,-0.954,0.396,1.526,-12.939,0.671
-0.251,-0.975,0.387,-0.549,-13.245,4.028
-0.263,-0.97,0.376,-2.014,-11.658,5.615
-0.273,-0.952,0.38,-3.052,-8.484,5.432
-0.277,-0.932,0.386,-2.991,-4.944,5.066
-0.285,-0.919,0.395,-2.625,-2.197,3.723
-0.284,-0.918,0.404,-2.075,-0.549,1.892
-0.28,-0.922,0.414,-2.014,-0.122,-0.916
-0.279,-0.913,0.413,-2.075,-1.282,-4.15
-0.278,-0.901,0.405,-2.014,-2.686,-7.446
-0.27,-0.894,0.397,-1.465,-3.235,-9.155
-0.266,-0.903,0.397,-1.709,-1.77,-9.216
2.013,-0.998,-0.352,-99.548,-163.696,-8.118
2.247,-0.927,-0.614,-111.023,-266.174,6.47
2.571,-0.796,-0.934,-92.102,-391.174,10.986
2.7,-0.648,-1.224,-48.828,-525.33,5.798
2.594,-0.655,-1.382,-10.681,-646.301,3.174
2.34,-0.794,-1.397,4.333,-740.967,16.479
2.058,-0.916,-1.396,5.005,-807.861,47.363
1.767,-0.959,-1.438,16.357,-856.384,76.965
1.43,-0.909,-1.456,32.166,-887.634,96.924
1.035,-0.787,-1.406,43.762,-899.231,116.211
0.593,-0.661,-1.308,55.481,-891.724,138.794
0.157,-0.637,-1.188,58.411,-863.037,168.64
-0.214,-0.816,-1.104,48.706,-813.782,207.947
-0.503,-1.07,-1.019,28.503,-750.488,245.85
-0.734,-1.251,-0.985,10.925,-686.035,259.644
-0.994,-1.264,-1.087,5.127,-625.732,232.361
-1.249,-1.035,-1.216,7.019,-559.631,184.387
-1.579,-0.685,-1.141,15.503,-474.792,155.823
-2.904,-0.392,-0.537,64.758,-385.925,165.649
-3.885,-0.398,-0.72,87.83,-337.769,292.847
-3.375,-1.738,-1.292,-62.683,-271.24,477.905
-1.614,-3.559,-1.287,-166.382,-161.438,500.916
-0.816,-2.887,-0.953,-139.832,-55.359,293.213
-0.569,-1.702,-0.694,-21.24,12.207,31.616
-0.035,-0.924,-0.137,53.223,84.045,-176.758
0.43,-0.565,0.179,68.787,132.629,-242.31
0.34,-0.737,0.68,62.378,152.771,-212.646
0.353,-1.246,0.935,57.861,123.169,-150.208
0.488,-1.656,0.897,39.978,55.481,-97.595
0.57,-1.693,0.784,17.212,-10.62,-53.345
0.495,-1.546,0.569,-6.958,-61.096,-16.968
0.337,-1.268,0.346,-22.278,-88.196,1.038
0.154,-0.976,0.201,-25.879,-89.539,15.808
-0.045,-0.837,0.226,-25.208,-72.021,27.161
-0.226,-0.773,0.365,-21.667,-52.246,36.255
-0.35,-0.745,0.473,-18.677,-44.495,43.945
-0.438,-0.757,0.523,-18.311,-47.668,44.922
-0.494,-0.668,0.45,-17.761,-54.871,36.499
-0.464,-0.667,0.386,-15.503,-53.04,26.306
-0.36,-0.698,0.26,-10.071,-37.781,13.977
-0.294,-0.969,0.28,-5.249,-11.597,-2.075
-0.329,-0.814,0.218,4.395,15.259,-37.842
-0.186,-0.736,0.316,8.606,49.316,-46.387
-0.089,-0.774,0.489,8.545,77.087,-49.255
0.058,-0.818,0.6,9.094,80.017,-40.039
0.137,-0.788,0.628,6.287,63.049,-27.344
0.18,-0.796,0.621,3.479,35.95,-10.681
0.166,-0.854,0.591,2.441,5.249,3.174
0.09,-0.882,0.529,3.479,-24.292,11.902
-0.031,-0.909,0.459,3.174,-45.715,20.264
-0.149,-0.973,0.409,1.465,-54.993,26.428
-0.24,-1.026,0.369,0.488,-54.26,26.611
-0.288,-1.039,0.332,-0.305,-45.776,21.362
-0.292,-1.034,0.307,-1.343,-30.396,14.221
-0.253,-1.04,0.316,-2.136,-11.536,5.92
-0.189,-1.042,0.352,-1.648,6.104,-3.967
-0.126,-1.019,0.412,-1.099,19.714,-15.015
-0.08,-0.969,0.484,-0.488,26.55,-23.254
-0.047,-0.917,0.545,-1.221,25.818,-25.269
-0.026,-0.888,0.58,-3.967,18.86,-20.691
-0.014,-0.873,0.585,-6.042,7.935,-12.695
-0.019,-0.871,0.557,-7.08,-3.601,-6.287
-0.051,-0.883,0.521,-8.301,-11.963,-1.953
-0.101,-0.873,0.485,-8.728,-15.808,-0.061
-0.138,-0.845,0.453,-7.996,-14.771,0.183
-0.155,-0.83,0.442,-7.08,-9.46,0.671
-0.155,-0.839,0.456,-5.798,-3.357,1.221
-0.149,-0.861,0.474,-4.211,0.549,-0.244
-0.141,-0.882,0.483,-2.563,1.404,-3.357
-0.132,-0.892,0.483,-1.465,-0.305,-6.897
-0.131,-0.889,0.473,-0.732,-2.869,-10.437
-0.131,-0.886,0.458,0.305,-5.005,-12.695
-0.133,-0.905,0.436,0.916,-5.31,-13.0
-0.138,-0.931,0.419,0.854,-2.686,-12.024
-0.14,-0.936,0.398,1.465,2.502,-12.146
-0.15,-0.933,0.381,1.953,10.62,-11.963
-0.163,-0.938,0.377,1.16,21.545,-10.376
-0.185,-0.943,0.353,0.488,34.424,-7.812
-0.186,-0.941,0.339,-0.854,50.537,-6.47
-0.192,-0.919,0.324,-1.709,69.519,-6.592
-0.174,-0.871,0.329,-1.892,89.05,-6.714
-0.109,-0.828,0.43,-1.404,106.384,-5.432
0.004,-0.823,0.617,0.366,110.352,-3.418
0.133,-0.87,0.812,1.831,88.623,-2.014
0.179,-0.918,0.855,1.77,39.856,-2.136
0.055,-0.888,0.696,0.366,-16.479,-4.456
0.04,-0.804,0.703,-0.732,-55.359,-3.296
0.18,-0.865,0.832,-0.61,-87.769,3.357
0.13,-0.867,0.677,-1.587,-133.118,7.202
-0.014,-0.886,0.404,-4.395,-165.588,16.846
-0.246,-0.941,0.119,-5.981,-160.645,22.583
-0.43,-1.005,-0.063,-3.906,-117.188,17.761
-0.494,-1.014,-0.026,-0.061,-46.448,6.348
-0.401,-0.999,0.176,2.625,24.719,-5.432
-0.309,-0.951,0.319,2.136,73.303,-15.442
-0.207,-0.912,0.427,0.427,98.389,-20.325
-0.083,-0.898,0.553,-1.221,105.713,-23.499
0.024,-0.873,0.654,-0.671,94.177,-28.381
0.061,-0.805,0.688,1.648,67.566,-30.945
0.066,-0.756,0.692,2.136,34.912,-25.513
0.06,-0.785,0.674,0.61,2.991,-12.207
0.022,-0.855,0.598,-0.977,-25.269,0.977
-0.036,-0.921,0.506,-1.892,-43.274,9.277
-0.099,-0.947,0.444,-2.502,-47.974,11.78
-0.151,-0.943,0.406,-2.625,-41.321,11.475
-0.186,-0.932,0.388,-3.296,-27.832,10.254
-0.191,-0.926,0.4,-3.662,-11.536,8.911
-0.167,-0.916,0.442,-3.784,3.113,6.47
-0.135,-0.9,0.496,-3.784,11.414,3.479
-0.115,-0.884,0.526,-3.784,11.536,0.732
-0.096,-0.879,0.531,-3.906,5.554,-0.549
-0.097,-0.894,0.506,-3.601,-1.648,-2.38
-0.11,-0.899,0.47,-2.563,-6.836,-5.737
-0.124,-0.891,0.444,-0.793,-8.179,-9.094
-0.13,-0.891,0.437,0.122,-5.432,-10.071
-0.128,-0.908,0.448,0.305,-0.244,-8.911
-0.121,-0.93,0.466,0.061,4.395,-7.69
-0.107,-0.942,0.485,-0.549,7.263,-7.629
-0.09,-0.936,0.506,-1.526,7.874,-8.728
1.711,-1.366,-0.321,-58.228,-22.644,-32.898
1.919,-1.355,-0.572,-87.28,-82.886,-42.847
2.21,-1.405,-0.877,-102.844,-177.002,-54.138
2.344,-1.447,-1.052,-109.009,-306.396,-69.824
2.362,-1.451,-1.116,-125.244,-442.078,-87.891
2.48,-1.373,-1.204,-140.076,-575.317,-84.961
2.667,-1.197,-1.412,-130.554,-714.539,-56.885
2.705,-0.975,-1.599,-93.323,-857.605,-14.709
2.526,-0.703,-1.697,-62.378,-973.389,30.945
2.261,-0.448,-1.775,-35.583,-1035.767,89.294
1.871,-0.429,-1.768,-7.568,-1046.082,175.537
1.436,-0.738,-1.77,11.047,-1027.161,267.822
0.971,-1.203,-1.768,10.071,-997.009,342.102
0.355,-1.497,-1.753,-0.183,-956.848,379.7
-0.341,-1.543,-1.71,-8.301,-905.762,375.854
-0.925,-1.317,-1.783,-12.756,-846.191,337.708
-2.452,0.017,-0.712,24.109,-759.033,272.705
-4.0,-0.473,-0.95,212.891,-681.274,301.514
-4.0,-0.222,-2.965,-36.926,-634.46,519.043
-4.0,-2.594,-3.698,-314.392,-432.861,597.046
-2.825,-3.486,-2.726,-213.013,-153.503,381.47
-0.848,-1.885,-1.365,36.377,23.437,54.626
0.408,-1.022,-0.008,117.004,126.465,-191.772
0.187,-0.584,0.693,74.219,140.564,-279.785
0.003,-0.79,0.806,69.58,107.3,-220.886
-0.027,-1.907,0.72,73.059,73.242,-148.743
0.443,-2.272,0.753,46.997,53.833,-144.409
0.567,-1.672,0.574,25.208,30.945,-177.856
0.663,-1.655,0.483,39.185,-0.977,-248.657
0.862,-1.263,0.298,36.56,2.075,-246.033
0.819,-1.154,0.365,42.847,6.165,-207.825
0.756,-1.123,0.534,23.865,-3.235,-160.461
0.675,-0.996,0.672,12.024,-36.011,-94.299
0.459,-0.929,0.652,-5.615,-86.182,-24.414
0.2,-0.91,0.534,-26.123,-133.85,32.715
-0.105,-0.862,0.348,-37.659,-164.795,76.355
-0.419,-0.745,0.217,-42.542,-169.067,97.778
-0.749,-0.593,0.216,-39.551,-152.344,102.783
-1.06,-0.479,0.23,-30.884,-128.479,102.783
-1.2,-0.544,0.118,-31.372,-105.469,105.896
-1.181,-0.77,-0.053,-40.894,-76.05,97.778
-1.009,-0.93,-0.153,-43.396,-34.729,66.467
-0.682,-0.916,-0.107,-32.776,11.841,19.653
-0.356,-0.791,0.058,-17.151,51.941,-21.057
-0.111,-0.692,0.246,-7.69,72.815,-38.757
0.04,-0.693,0.389,-1.526,69.885,-33.569
0.129,-0.837,0.508,3.418,48.035,-15.076
0.08,-0.971,0.493,5.981,13.916,3.113
-0.02,-1.053,0.404,5.737,-18.555,18.616
-0.063,-1.236,0.469,3.906,-42.358,25.94
-0.278,-1.137,0.174,2.991,-62.988,21.24
-0.393,-0.994,0.105,-1.404,-54.382,28.381
-0.32,-0.846,0.243,-3.235,-24.902,40.649
-0.098,-1.232,0.491,-4.15,-18.005,55.176
-0.315,-1.205,0.21,-5.005,-39.307,37.292
-0.384,-1.219,0.174,-5.127,-38.452,18.738
-0.455,-0.975,0.224,-1.526,-18.25,-12.268
-0.357,-0.847,0.285,2.502,-4.333,-24.414
-0.404,-0.775,0.183,0.549,6.47,-24.17
-0.343,-0.881,0.257,-0.122,27.161,-15.869
-0.233,-1.037,0.391,2.93,44.067,-16.357
-0.154,-1.086,0.464,6.226,45.105,-27.283
-0.135,-0.992,0.477,5.554,35.4,-38.574
-0.158,-0.842,0.436,2.441,27.222,-39.612
-0.155,-0.754,0.446,0.488,25.085,-28.87
-0.118,-0.784,0.507,-0.244,23.865,-12.573
-0.119,-0.865,0.492,-0.549,16.724,0.977
-0.128,-0.921,0.491,-1.16,8.362,7.568
-0.151,-0.896,0.455,-0.488,-0.488,5.432
-0.171,-0.824,0.445,-0.244,-8.789,2.747
-0.2,-0.805,0.428,0.488,-15.015,5.432
-0.234,-0.867,0.383,0.61,-19.958,10.986
-0.273,-0.948,0.348,1.282,-20.264,13.367
-0.304,-0.988,0.336,2.075,-16.174,10.62
-0.316,-0.992,0.324,2.075,-10.132,6.287
-0.315,-0.986,0.32,0.183,-2.869,2.808
-0.28,-0.967,0.331,-1.038,4.456,0.061
-0.231,-0.949,0.344,-1.16,8.911,-2.625
-0.195,-0.912,0.363,-0.732,10.437,-4.333
-0.176,-0.896,0.387,0.122,8.911,-3.723
-0.168,-0.896,0.413,0.061,3.845,-1.16
-0.176,-0.924,0.431,0.0,-2.869,3.662
-0.183,-0.968,0.419,-0.122,-10.559,7.019
-0.213,-0.998,0.386,-0.427,-16.113,7.019
-0.249,-0.977,0.353,-1.343,-16.418,3.906
-0.262,-0.943,0.349,-1.648,-11.169,1.038
-0.253,-0.932,0.359,-1.77,-4.395,-0.427
-0.228,-0.936,0.377,-2.502,1.038,0.0
-0.209,-0.932,0.403,-3.418,3.479,0.122
-0.19,-0.914,0.417,-3.601,1.282,-0.977
-0.195,-0.887,0.406,-3.174,-3.54,-1.77
-0.214,-0.879,0.379,-2.808,-8.118,-1.221
-0.231,-0.889,0.346,-2.014,-9.583,-0.916
-0.251,-0.895,0.331,-0.427,-7.324,-0.977
-0.254,-0.913,0.334,0.671,-2.502,-2.38
-0.252,-0.934,0.353,1.526,2.808,-4.333
-0.241,-0.948,0.374,1.892,6.592,-7.202
-0.221,-0.95,0.391,1.892,8.057,-9.949
-0.206,-0.945,0.401,1.587,7.263,-11.475
-0.207,-0.938,0.408,0.793,4.761,-11.292
-0.206,-0.933,0.4,-0.977,0.854,-9.338
-0.21,-0.929,0.385,-2.258,-2.502,-6.348
-0.214,-0.927,0.371,-2.93,-3.845,-3.54
-0.219,-0.926,0.366,-3.845,-3.845,-1.282
-0.224,-0.924,0.37,-4.456,-2.869,-0.061
-0.231,-0.909,0.387,-4.333,-1.343,0.427
-0.225,-0.895,0.393,-4.028,-0.549,0.793
-0.22,-0.892,0.397,-3.845,-0.427,1.465
-0.209,-0.9,0.4,-3.357,-0.183,2.075
-0.2,-0.913,0.404,-2.197,-0.854,1.526
-0.2,-0.926,0.408,-1.221,-2.014,0.061
-0.208,-0.937,0.404,-0.793,-3.845,-2.075
-0.229,-0.946,0.391,-0.916,-5.493,-4.211
-0.245,-0.958,0.371,-1.831,-5.798,-5.249
-0.249,-0.963,0.353,-3.174,-4.089,-5.615
-0.241,-0.954,0.35,-3.906,-0.916,-5.798
-0.23,-0.943,0.363,-4.639,2.502,-5.554
-0.228,-0.937,0.38,-5.798,4.578,-4.944
-0.23,-0.927,0.389,-6.714,4.517,-4.578
1.451,-1.341,-0.18,-77.454,-228.088,62.317
1.73,-1.326,-0.326,-59.814,-308.777,79.651
2.099,-1.251,-0.502,-39.063,-416.748,104.309
2.369,-1.276,-0.682,-20.02,-554.382,132.141
2.479,-1.354,-0.937,0.61,-694.58,161.926
2.403,-1.446,-1.232,17.395,-805.42,193.909
2.219,-1.557,-1.483,27.893,-875.122,217.407
1.993,-1.539,-1.708,21.729,-901.917,229.675
1.615,-1.381,-1.777,4.517,-890.991,239.258
1.146,-1.134,-1.793,-12.146,-861.694,236.572
0.735,-0.975,-1.792,-20.447,-825.867,228.699
0.418,-0.933,-1.72,-25.94,-780.701,225.159
0.138,-0.924,-1.531,-29.114,-725.708,228.271
-0.16,-0.856,-1.281,-22.156,-676.758,229.675
-0.461,-0.75,-1.117,-5.554,-646.973,225.464
-0.7,-0.748,-1.017,10.742,-630.676,216.919
-1.148,-0.785,-1.174,19.226,-611.45,206.848
-1.529,-0.875,-1.161,20.203,-558.716,198.914
-1.843,-0.913,-0.716,26.855,-477.844,184.509
-3.536,-0.486,-0.053,70.374,-408.02,174.622
-4.0,-0.622,-0.477,115.234,-360.168,266.296
-3.963,-1.774,-1.433,-55.786,-275.696,427.49
-1.799,-3.692,-1.508,-206.177,-122.742,444.031
-0.665,-3.171,-1.135,-220.215,25.085,222.961
-0.059,-1.114,-0.425,-80.261,88.196,-60.364
0.467,-0.031,-0.169,39.49,104.492,-232.056
0.485,0.237,0.047,50.232,117.371,-251.16
0.115,-0.267,0.232,38.635,132.263,-152.71
-0.029,-1.152,0.656,40.344,134.827,-60.242
0.257,-1.629,1.058,41.321,98.083,-32.104
0.352,-1.724,1.028,34.119,11.047,-30.579
0.214,-1.47,0.753,14.221,-71.106,-32.532
0.12,-1.168,0.434,-4.517,-115.784,-18.311
0.066,-0.987,0.178,-15.503,-118.347,8.301
0.015,-0.94,0.104,-18.494,-89.111,34.79
-0.048,-0.956,0.209,-16.357,-48.218,51.331
-0.135,-0.949,0.358,-14.16,-17.09,58.167
-0.224,-0.904,0.486,-14.343,-1.831,61.401
-0.288,-0.867,0.549,-16.418,1.099,62.805
-0.332,-0.865,0.568,-18.25,-3.113,55.908
-0.333,-0.876,0.529,-17.883,-9.705,40.71
-0.321,-0.843,0.443,-16.174,-13.123,21.912
-0.269,-0.835,0.401,-13.306,-7.446,4.028
-0.226,-0.836,0.379,-7.996,5.127,-13.977
-0.188,-0.818,0.356,-1.587,20.081,-28.198
-0.182,-0.773,0.297,2.502,38.635,-34.424
-0.237,-0.569,0.309,2.747,63.538,-27.893
0.205,-0.842,0.635,1.465,82.947,-1.099
0.034,-1.033,0.429,-0.61,69.946,6.287
0.058,-1.158,0.432,0.732,58.655,-3.235
-0.281,-0.935,0.002,1.465,64.27,-18.555
-0.113,-1.095,0.343,1.221,101.379,-24.78
0.083,-1.153,0.844,6.653,122.498,-41.382
0.071,-0.901,0.689,9.399,76.05,-55.603
0.007,-0.72,0.607,-0.305,36.987,-35.522
0.006,-0.765,0.68,-10.071,18.86,-7.996
0.03,-0.849,0.591,-11.658,-10.437,10.315
0.007,-0.915,0.531,-9.827,-33.63,19.592
-0.039,-0.993,0.529,-8.118,-45.166,19.775
-0.081,-1.028,0.486,-5.859,-54.81,10.376
-0.183,-0.948,0.353,-3.479,-57.983,-3.052
-0.206,-0.877,0.342,-3.662,-41.626,-9.094
-0.187,-0.87,0.332,-5.005,-16.602,-8.789
-0.185,-0.878,0.305,-5.615,8.728,-6.287
-0.145,-0.891,0.363,-5.066,36.072,-4.639
-0.078,-0.915,0.46,-5.066,58.167,-5.188
-0.011,-0.911,0.546,-5.188,67.078,-6.531
0.029,-0.885,0.621,-5.676,63.538,-5.92
0.083,-0.871,0.716,-7.08,49.561,-2.136
0.102,-0.842,0.738,-8.484,25.33,4.089
0.094,-0.807,0.697,-10.132,-4.639,12.756
0.062,-0.82,0.635,-11.047,-30.945,22.156
0.001,-0.851,0.528,-10.132,-49.744,26.611
-0.059,-0.885,0.451,-7.568,-56.03,25.818
-0.115,-0.907,0.401,-4.395,-50.72,19.348
-0.156,-0.918,0.377,-1.526,-37.903,9.949
-0.18,-0.914,0.371,0.671,-20.569,0.122
-0.177,-0.903,0.389,1.526,-2.075,-7.751
-0.15,-0.895,0.417,2.136,14.343,-13.855
-0.112,-0.892,0.448,2.38,26.367,-17.7
-0.076,-0.895,0.474,1.77,33.325,-18.616
-0.044,-0.908,0.5,0.671,35.583,-16.907
-0.024,-0.915,0.517,0.183,33.691,-14.832
-0.016,-0.911,0.52,-0.793,28.87,-12.146
-0.011,-0.901,0.524,-2.075,24.292,-7.08
-0.009,-0.9,0.533,-3.296,19.531,-1.709
-0.018,-0.901,0.537,-4.211,13.733,2.38
-0.026,-0.893,0.537,-4.333,7.568,4.761
-0.027,-0.899,0.544,-3.906,1.16,5.127
-0.045,-0.905,0.534,-3.662,-4.883,3.418
-0.053,-0.885,0.52,-3.418,-9.521,1.282
-0.059,-0.861,0.501,-3.113,-12.024,-0.488
-0.062,-0.845,0.492,-2.319,-12.207,-2.258
-0.062,-0.847,0.498,-1.16,-10.498,-2.747
-0.063,-0.864,0.497,-0.793,-8.301,-2.563
-0.065,-0.875,0.496,-0.916,-5.554,-3.113
-0.067,-0.877,0.484,-0.732,-2.869,-4.089
-0.069,-0.881,0.472,-0.916,1.16,-4.395
-0.069,-0.884,0.473,-1.099,7.202,-4.456
-0.059,-0.884,0.477,-0.732,13.245,-4.883
-0.047,-0.883,0.497,-0.671,18.311,-4.883
-0.039,-0.885,0.531,-0.977,20.752,-4.456
-0.026,-0.891,0.55,-1.282,19.165,-3.357
-0.006,-0.897,0.57,-1.77,14.709,-2.38
0.003,-0.897,0.576,-2.441,7.568,-1.16
-0.005,-0.89,0.569,-3.418,-0.793,-0.671
-0.014,-0.884,0.561,-3.418,-8.057,-0.244
-0.025,-0.888,0.533,-3.54,-13.916,0.488
-0.038,-0.895,0.508,-3.784,-16.785,1.221
-0.055,-0.899,0.479,-3.906,-16.052,1.099
-0.076,-0.892,0.456,-3.479,-12.268,0.061
-0.079,-0.887,0.459,-2.808,-5.31,-1.099
-0.078,-0.888,0.469,-2.563,2.197,-1.77
-0.077,-0.882,0.491,-2.563,8.057,-2.625
-0.066,-0.876,0.505,-1.77,11.23,-3.662
-0.047,-0.884,0.508,-2.075,12.024,-4.456
-0.038,-0.887,0.511,-2.869,12.024,-5.31
-0.033,-0.876,0.511,-2.197,11.658,-5.92
-0.022,-0.873,0.509,-1.404,11.353,-6.348
1.732,-0.946,-0.324,-21.24,-40.039,75.562
2.001,-0.985,-0.424,-40.466,-148.071,108.643
2.695,-0.848,-0.675,-13.123,-324.28,118.774
3.3,-0.541,-1.074,64.27,-543.762,103.271
3.267,-0.812,-1.29,115.723,-765.869,100.769
3.114,-1.388,-1.626,86.548,-963.928,109.131
2.792,-1.575,-2.033,50.11,-1118.408,128.113
2.334,-1.45,-2.382,37.659,-1202.82,159.363
1.617,-1.152,-2.434,28.381,-1205.383,166.931
0.919,-0.786,-2.323,21.79,-1154.297,155.518
0.293,-0.621,-2.201,17.09,-1072.998,162.659
-0.284,-0.685,-2.157,16.235,-955.322,184.143
-0.888,-0.848,-2.082,16.235,-798.706,206.482
-1.314,-1.001,-1.655,17.761,-625.305,216.919
-1.499,-1.049,-1.167,27.771,-482.544,214.844
-1.639,-1.029,-0.729,40.649,-388.794,208.252
-2.415,-0.828,-1.198,41.931,-331.177,202.698
-1.813,-1.285,-0.618,31.616,-229.736,208.13
-1.757,-0.984,0.536,44.006,-143.188,171.997
-2.524,-1.029,0.577,72.815,-195.374,178.284
-2.673,-1.392,0.055,49.988,-269.592,253.174
-1.815,-2.245,-0.452,-56.396,-290.466,328.979
-1.281,-2.626,-1.46,-127.38,-251.953,291.077
-1.301,-2.12,-1.985,-106.567,-118.835,147.583
-0.249,-1.358,-0.508,-27.71,68.42,-4.578
-0.037,-1.045,-0.321,22.217,166.626,-92.346
0.26,-1.11,0.41,17.578,211.426,-109.436
0.177,-1.344,0.695,13.855,204.834,-87.341
-0.636,-1.08,-0.644,14.343,164.612,-82.642
0.183,-1.396,1.061,6.531,218.14,-76.05
0.394,-1.42,1.356,8.24,202.209,-103.271
0.555,-0.798,1.163,-0.488,84.229,-110.352
0.386,-0.399,0.884,-19.775,-20.386,-60.791
0.12,-0.399,0.513,-30.212,-74.463,-13.55
-0.128,-0.517,-0.034,-24.597,-86.121,29.663
-0.257,-0.79,0.179,-14.893,-31.921,56.03
0.024,-0.911,0.772,-0.732,20.142,45.227
-0.114,-1.014,0.481,5.859,-4.272,22.827
-0.23,-0.758,0.595,7.019,-9.094,-9.583
-0.272,-0.624,0.357,6.775,-8.24,-16.418
-0.225,-0.572,0.5,8.301,8.484,-14.465
-0.212,-0.59,0.357,12.756,20.447,-0.671
-0.041,-0.962,0.692,13.672,32.837,18.372
0.014,-1.162,0.787,18.005,12.634,7.019
-0.023,-1.088,0.554,17.09,-29.602,-9.705
-0.222,-0.999,0.356,9.338,-44.922,-18.372
-0.328,-1.016,0.225,3.906,-31.433,-22.461
-0.216,-1.01,0.386,4.15,0.549,-25.024
-0.12,-0.821,0.452,3.54,22.217,-20.996
-0.099,-0.947,0.411,-4.028,31.372,5.127
-0.108,-1.188,0.581,-7.324,43.335,10.925
0.056,-0.851,0.739,-2.136,34.607,-6.165
0.015,-0.851,0.506,-5.798,6.47,5.92
-0.142,-1.014,0.599,-11.475,-1.404,8.789
-0.098,-1.005,0.535,-5.127,-10.437,-3.235
-0.177,-0.778,0.382,-3.052,-13.489,-16.602
-0.176,-0.709,0.413,-6.409,2.808,-11.78
-0.127,-0.817,0.469,-6.165,21.667,-2.93
-0.152,-0.86,0.415,-0.916,31.555,-4.578
-0.094,-0.864,0.496,1.099,45.41,-7.996
-0.066,-0.873,0.566,0.427,54.321,-10.193
-0.032,-0.885,0.643,0.244,52.185,-12.756
0.024,-0.868,0.735,0.366,40.771,-14.648
0.053,-0.839,0.713,-1.892,17.212,-13.245
0.0,-0.806,0.614,-5.188,-6.104,-8.301
-0.04,-0.812,0.552,-7.202,-18.86,-1.953
-0.051,-0.864,0.527,-6.775,-22.827,2.502
-0.067,-0.89,0.525,-5.615,-22.766,2.319
-0.085,-0.859,0.524,-4.517,-22.156,0.549
-0.105,-0.821,0.516,-4.822,-21.79,1.221
-0.115,-0.823,0.525,-4.517,-20.63,3.784
-0.121,-0.852,0.525,-4.456,-20.203,6.531
-0.134,-0.904,0.505,-3.906,-20.569,6.592
-0.153,-0.938,0.463,-3.54,-18.982,2.441
-0.167,-0.932,0.44,-2.869,-12.207,-3.906
-0.139,-0.899,0.459,-1.77,-2.014,-9.705
-0.097,-0.859,0.495,-2.075,6.348,-11.23
-0.079,-0.842,0.512,-3.235,9.888,-6.409
-0.07,-0.883,0.533,-4.578,9.888,1.099
-0.069,-0.938,0.534,-4.7,6.836,4.333
-0.083,-0.941,0.525,-4.456,2.869,2.319
-0.101,-0.899,0.518,-4.7,-0.183,-1.038
-0.116,-0.858,0.503,-5.066,-1.831,-2.441
-0.12,-0.845,0.508,-5.249,-0.854,-1.587
-0.104,-0.861,0.518,-4.883,0.793,-1.038
-0.095,-0.865,0.52,-4.272,0.854,-2.38
-0.102,-0.843,0.516,-2.808,0.122,-4.211
-0.098,-0.82,0.51,-1.648,-0.427,-5.371
-0.086,-0.83,0.513,-0.549,-0.061,-4.761
-0.08,-0.848,0.522,0.488,-0.122,-3.723
-0.084,-0.861,0.525,1.16,-0.977,-3.235
-0.093,-0.864,0.526,0.793,-1.587,-2.319
-0.095,-0.862,0.535,1.038,-2.136,-1.953
-0.094,-0.871,0.541,1.099,-2.808,-2.014
-0.101,-0.89,0.538,0.427,-3.723,-1.526
-0.112,-0.898,0.52,-0.427,-3.967,-1.526
-0.117,-0.895,0.501,-0.793,-2.625,-2.93
-0.114,-0.883,0.495,-0.793,0.854,-4.456
-0.109,-0.88,0.505,-0.977,5.005,-5.371
-0.103,-0.878,0.524,-1.16,8.667,-5.493
-0.093,-0.875,0.536,-0.977,10.193,-5.31
-0.08,-0.871,0.545,-0.793,9.583,-4.822
-0.073,-0.87,0.557,-0.793,7.141,-4.272
-0.074,-0.875,0.566,-1.343,3.357,-2.93
-0.082,-0.877,0.56,-2.136,-1.343,-1.831
-0.088,-0.872,0.543,-2.38,-5.127,-1.282
-0.088,-0.866,0.529,-2.625,-7.263,-0.854
-0.087,-0.865,0.523,-2.808,-8.118,-0.122
-0.084,-0.87,0.521,-3.357,-8.301,0.183
-0.097,-0.865,0.516,-3.967,-8.118,0.488
-0.103,-0.853,0.503,-3.54,-7.507,0.305
-0.095,-0.849,0.501,-2.686,-5.371,0.305
-0.089,-0.853,0.512,-2.136,-2.441,0.977
-0.091,-0.859,0.527,-1.526,-0.061,1.77
-0.093,-0.868,0.535,-1.099,0.671,1.831
-0.09,-0.885,0.541,-1.099,0.732,1.709
-0.086,-0.894,0.547,-1.099,-0.122,0.732
-0.087,-0.886,0.546,-1.221,-2.075,-0.549
-0.085,-0.872,0.54,-1.282,-4.639,-1.892
1.382,-1.243,-0.251,-61.218,-83.13,30.701
1.671,-1.143,-0.35,-46.997,-159.973,59.021
2.018,-1.063,-0.395,10.864,-273.804,98.816
2.328,-1.143,-0.529,99.487,-427.246,137.756
2.507,-1.253,-0.907,159.851,-599.915,166.138
2.364,-1.218,-1.255,170.898,-747.07,201.416
2.046,-1.113,-1.577,166.016,-844.849,234.009
1.648,-1.064,-1.758,155.64,-877.197,251.343
1.243,-1.137,-1.745,139.771,-856.995,245.544
0.821,-1.177,-1.494,117.004,-808.472,210.693
0.376,-1.011,-1.118,97.9,-758.057,173.279
-0.155,-0.635,-0.749,85.938,-714.6,145.386
-0.594,-0.499,-0.561,86.731,-666.565,134.033
-0.884,-0.707,-0.551,75.623,-607.3,139.404
-1.157,-0.95,-0.496,44.556,-534.424,143.982
-1.386,-0.948,-0.372,21.79,-462.036,135.498
-1.469,-0.805,-0.229,18.799,-405.64,121.277
-1.388,-0.653,-0.088,18.738,-368.286,112.061
-1.314,-0.54,0.041,17.883,-344.666,113.831
-1.313,-0.517,0.145,23.01,-332.581,121.765
-1.676,-0.355,0.323,36.499,-332.52,137.573
-3.12,-0.049,-0.181,92.651,-324.219,177.612
-3.822,-0.859,-0.66,141.541,-241.333,238.342
-2.934,-2.085,-0.468,48.401,-106.506,285.828
-1.462,-2.577,0.013,-40.955,-3.235,259.583
-0.748,-2.004,0.285,-35.217,15.808,128.235
-0.402,-1.22,0.157,-9.644,-11.475,-14.099
-0.138,-0.977,0.107,-5.31,-24.048,-88.745
0.056,-1.153,0.322,-7.996,-13.489,-105.225
0.207,-1.355,0.46,-0.366,-13.0,-101.196
0.215,-1.469,0.397,2.075,-24.597,-93.384
0.14,-1.493,0.3,-2.808,-24.048,-82.581
0.078,-1.306,0.128,-6.897,-4.639,-73.059
0.038,-1.156,0.023,-12.39,35.461,-68.298
-0.035,-1.023,0.059,-12.268,86.731,-63.232
-0.06,-0.951,0.188,-7.751,138.55,-47.791
0.043,-0.986,0.413,-8.911,180.847,-37.292
0.113,-0.902,0.702,-8.057,194.946,-39.246
0.269,-0.764,1.004,-4.517,169.678,-34.424
0.359,-0.667,1.2,-7.202,108.521,-26.978
0.335,-0.559,1.123,-12.756,21.912,-18.738
0.171,-0.521,0.834,-17.09,-59.692,-3.174
-0.041,-0.642,0.575,-17.578,-108.521,11.841
-0.168,-0.812,0.486,-13.367,-123.901,15.747
-0.221,-0.863,0.456,-8.423,-122.498,7.629
-0.284,-0.787,0.383,-8.362,-113.892,0.549
-0.338,-0.772,0.312,-11.169,-94.055,3.54
-0.348,-0.869,0.283,-10.071,-66.406,6.042
-0.324,-0.945,0.276,-5.615,-37.72,1.099
-0.273,-0.985,0.307,-2.869,-12.329,-6.775
-0.233,-0.961,0.38,-3.662,6.104,-14.526
-0.226,-0.866,0.395,-3.906,15.564,-17.7
-0.158,-0.729,0.496,-4.761,20.447,-10.864
-0.174,-0.82,0.424,-6.104,20.02,6.226
-0.177,-0.927,0.534,-5.554,20.813,14.404
-0.131,-1.008,0.543,-2.563,14.648,13.489
-0.139,-0.969,0.537,-1.648,4.517,3.601
-0.168,-0.871,0.504,-3.784,-2.319,-1.404
-0.156,-0.84,0.489,-6.592,-2.38,-0.122
-0.156,-0.897,0.473,-7.324,1.221,2.075
-0.163,-0.927,0.465,-7.08,7.568,0.488
-0.166,-0.918,0.454,-7.385,15.503,-2.747
-0.184,-0.891,0.446,-7.629,24.841,-5.859
-0.171,-0.865,0.471,-7.08,35.461,-5.798
-0.139,-0.845,0.517,-6.531,43.457,-4.211
-0.1,-0.82,0.557,-6.042,45.044,-1.526
-0.064,-0.809,0.603,-4.883,40.344,2.075
-0.039,-0.814,0.644,-3.601,29.236,5.737
-0.031,-0.82,0.679,-3.601,11.658,9.888
-0.039,-0.82,0.679,-3.845,-10.376,13.55
-0.06,-0.818,0.642,-4.333,-33.081,16.418
-0.108,-0.84,0.562,-5.432,-49.988,19.775
-0.168,-0.896,0.473,-6.409,-56.274,21.179
-0.211,-0.951,0.391,-5.371,-50.964,17.151
-0.229,-0.991,0.361,-3.784,-35.767,8.179
-0.255,-0.985,0.365,-2.869,-15.137,-3.357
-0.248,-0.939,0.398,-2.502,5.554,-12.939
-0.203,-0.903,0.449,-2.014,23.071,-17.456
-0.154,-0.891,0.515,-2.502,33.386,-18.311
-0.118,-0.881,0.566,-3.174,34.302,-17.883
-0.093,-0.869,0.593,-4.333,27.161,-15.503
-0.086,-0.854,0.589,-5.798,16.663,-11.475
-0.087,-0.849,0.561,-6.47,5.798,-6.47
-0.106,-0.863,0.532,-7.446,-1.953,-1.892
-0.128,-0.88,0.507,-7.812,-5.859,1.038
-0.14,-0.881,0.486,-7.385,-6.104,1.587
-0.147,-0.868,0.469,-6.531,-3.662,0.427
-0.153,-0.852,0.472,-6.104,1.16,-0.732
-0.155,-0.846,0.491,-5.493,6.409,-1.221
-0.138,-0.857,0.507,-4.883,10.193,-1.282
-0.122,-0.861,0.526,-5.005,12.451,-1.77
-0.125,-0.847,0.538,-4.7,12.024,-3.601
-0.119,-0.834,0.535,-3.784,10.559,-4.395
-0.109,-0.838,0.535,-3.967,9.399,-4.456
-0.104,-0.844,0.537,-3.601,8.423,-3.723
-0.1,-0.844,0.541,-2.808,6.775,-2.869
-0.101,-0.848,0.55,-2.319,4.822,-2.014
-0.101,-0.857,0.553,-2.441,2.136,-0.61
-0.106,-0.86,0.554,-2.563,-0.61,0.549
-0.116,-0.858,0.549,-2.502,-3.479,1.099
-0.128,-0.863,0.54,-2.747,-5.432,1.831
-0.132,-0.877,0.531,-3.174,-6.348,2.747
-0.13,-0.89,0.523,-3.54,-5.676,2.258
-0.133,-0.891,0.518,-3.235,-3.845,0.61
-0.135,-0.897,0.517,-2.747,-1.038,-1.16
-0.129,-0.905,0.522,-3.418,2.441,-2.563
-0.128,-0.902,0.528,-3.479,5.066,-4.517
-0.136,-0.88,0.537,-3.296,6.409,-6.47
-0.144,-0.854,0.539,-3.174,7.08,-7.874
-0.145,-0.842,0.536,-3.113,7.141,-7.812
-0.138,-0.843,0.528,-2.869,7.568,-7.08
-0.127,-0.852,0.527,-2.625,8.179,-6.958
-0.115,-0.856,0.531,-2.808,8.423,-7.385
-0.101,-0.853,0.54,-2.93,7.629,-7.874
-0.091,-0.839,0.546,-2.441,5.859,-7.874
-0.086,-0.826,0.552,-1.77,3.479,-6.348
-0.086,-0.833,0.558,-0.488,1.038,-3.357
-0.083,-0.867,0.561,0.0,-1.343,-0.488
-0.09,-0.893,0.56,-0.488,-3.113,1.099
1.482,-1.128,0.104,-27.039,-32.471,-15.076
1.822,-1.132,-0.029,-31.982,-42.297,-2.136
2.157,-1.037,-0.163,-40.894,-70.496,21.973
2.42,-0.907,-0.306,-42.175,-135.986,53.223
2.776,-0.803,-0.539,-31.311,-253.784,89.722
3.35,-0.58,-0.891,-18.127,-434.082,116.699
3.571,-0.575,-1.214,30.029,-667.175,119.934
3.576,-1.019,-1.587,70.557,-884.399,121.033
3.516,-1.499,-2.005,52.612,-1042.48,128.296
3.187,-1.538,-2.351,36.255,-1154.419,132.568
2.681,-1.187,-2.611,20.447,-1216.309,121.521
1.855,-0.754,-2.633,5.31,-1227.112,93.14
0.931,-0.374,-2.407,4.089,-1196.533,75.623
0.143,-0.259,-2.253,13.0,-1131.165,91.919
-0.486,-0.405,-2.279,10.498,-1014.343,133.85
-1.184,-0.612,-2.357,0.854,-836.182,187.012
-1.503,-0.923,-2.034,-3.967,-623.474,218.75
-1.267,-1.12,-1.432,-12.329,-432.251,220.215
-1.612,-0.779,-1.541,-7.629,-301.941,198.73
-1.196,-0.839,-1.317,8.179,-183.838,180.481
-1.115,-0.626,-0.459,34.851,-77.271,134.094
-0.651,-0.317,0.042,59.448,-88.867,101.99
-0.641,-0.324,-0.046,58.655,-170.898,127.563
-0.92,-0.681,0.541,66.406,-250.916,132.202
-1.746,-0.805,0.528,102.173,-371.887,143.433
-1.791,-1.269,-0.386,74.585,-493.103,242.065
-1.282,-2.465,-1.65,-42.175,-505.615,363.342
-1.131,-3.135,-2.721,-122.375,-356.14,342.834
-1.476,-2.537,-2.093,-65.491,-91.736,174.072
-0.526,-2.389,-0.556,21.057,134.216,13.672
-0.559,-2.138,-0.481,27.1,240.906,-119.873
-0.057,-1.26,0.53,10.864,323.853,-178.345
0.345,-0.843,1.07,-0.977,301.941,-135.071
0.657,-0.818,1.556,-13.245,194.58,-86.121
0.623,-0.993,1.149,-24.78,20.569,-29.846
0.24,-1.002,0.592,-34.18,-119.019,-6.348
-0.049,-0.953,0.284,-32.837,-177.185,6.348
-0.371,-0.836,-0.365,-26.062,-173.34,9.399
-0.582,-0.953,-0.143,-20.325,-99.915,13.306
-0.494,-1.035,0.239,-7.446,-8.484,-13.184
-0.329,-0.9,0.439,-1.526,30.579,-44.067
-0.238,-0.244,0.574,-3.235,42.48,-55.542
-0.176,-0.622,0.525,-10.01,31.86,-17.944
-0.047,-0.701,0.887,-3.052,12.268,-23.376
-0.102,-0.859,0.335,5.981,-43.152,-25.513
-0.393,-0.628,-0.0,6.775,-53.711,-41.687
-0.569,-0.758,-0.501,6.531,-1.221,-33.875
-0.215,-0.994,0.543,11.658,96.375,-28.442
0.219,-1.021,0.926,21.545,94.238,-37.231
0.078,-0.892,0.575,8.911,16.724,-22.339
0.008,-0.816,0.521,-9.155,-30.884,12.024
-0.184,-1.043,0.252,-16.174,-61.646,42.114
-0.313,-1.09,0.02,-11.292,-64.087,39.429
-0.359,-1.12,0.069,-9.46,-31.677,37.292
-0.36,-1.09,0.228,-9.521,2.258,23.865
-0.294,-0.97,0.251,-6.165,16.052,7.751
-0.333,-0.829,0.188,-4.15,23.01,-0.671
-0.336,-0.772,0.207,-4.028,36.316,2.991
-0.28,-0.88,0.28,-1.404,50.964,9.705
-0.238,-0.989,0.383,2.625,55.481,4.7
