aX,aY,aZ,gX,gY,gZ
1.923,-0.292,0.713,-33.203,94.788,48.218
2.299,-0.024,0.956,-42.542,124.939,66.528
2.538,0.557,1.156,-46.448,124.939,80.261
2.577,1.634,1.026,-47.058,76.599,88.623
2.559,2.74,0.511,-31.189,-2.441,86.243
2.739,3.261,0.072,-10.254,-64.209,69.336
2.921,3.531,-0.146,-1.953,-105.957,8.972
2.937,3.769,-0.585,27.893,-147.949,-93.262
2.813,3.871,-0.848,90.759,-169.983,-193.359
2.465,3.833,-1.004,164.307,-172.302,-279.297
2.201,3.651,-0.999,232.239,-169.678,-348.938
1.681,3.371,-0.845,307.678,-170.654,-416.748
0.684,2.922,-0.488,405.334,-200.134,-490.479
-0.405,2.006,-0.191,515.259,-272.217,-563.66
-1.249,-0.001,0.238,521.912,-356.445,-576.355
-2.147,-2.618,0.57,320.374,-407.837,-493.408
-3.218,-4.0,-0.037,6.531,-407.715,-365.845
-4.0,-4.0,-2.005,-298.828,-350.281,-281.738
-4.0,-4.0,-3.416,-480.347,-216.736,-315.796
-2.549,-1.737,-3.792,-432.129,-39.49,-443.542
-1.088,0.445,-1.932,-193.42,134.644,-524.353
-0.324,1.478,0.139,5.981,232.666,-442.2
-0.024,0.84,1.105,72.815,161.316,-219.482
-0.284,-0.935,1.344,130.554,-45.532,18.677
-0.648,-1.808,-0.52,243.347,-298.95,93.201
-1.828,-2.277,-1.551,312.561,-370.178,76.111
-2.682,-3.192,-1.386,268.372,-264.343,58.655
-2.294,-3.959,-0.755,162.476,-105.591,21.973
-1.64,-3.638,0.135,38.818,35.034,-46.692
-1.018,-2.408,0.41,-86.426,91.553,-127.625
-0.28,-1.053,0.091,-169.739,90.881,-172.363
-0.094,-0.061,0.144,-182.495,97.412,-155.579
-0.067,0.358,0.491,-157.288,105.103,-98.511
0.229,0.288,0.538,-97.229,71.472,-38.025
0.327,0.072,0.671,-17.395,26.123,12.512
0.302,-0.327,0.611,39.124,-24.719,59.509
0.11,-0.767,0.491,60.059,-66.589,88.989
-0.076,-0.891,0.305,64.209,-87.219,92.712
-0.212,-0.832,0.246,54.504,-75.012,75.867
-0.17,-0.711,0.39,44.312,-43.457,50.659
-0.078,-0.664,0.57,35.522,-13.367,26.184
0.041,-0.718,0.769,25.818,3.601,7.507
0.093,-0.622,0.809,19.47,2.014,-8.728
0.031,-0.586,0.684,19.043,-8.118,-15.381
0.003,-0.667,0.61,19.287,-10.498,-13.55
0.001,-0.756,0.574,24.658,-10.803,-11.047
-0.014,-0.818,0.565,33.691,-11.963,-8.972
0.018,-0.896,0.616,39.001,-15.198,-2.625
0.044,-0.974,0.636,38.269,-25.146,7.141
0.008,-1.005,0.57,34.424,-39.429,16.541
-0.052,-1.022,0.521,28.992,-48.462,22.888
-0.119,-1.02,0.472,23.743,-49.5,23.193
-0.179,-1.0,0.458,19.47,-41.565,17.456
-0.176,-0.987,0.524,14.648,-26.245,9.155
-0.112,-0.959,0.609,9.583,-12.817,1.038
-0.068,-0.912,0.606,6.226,-6.592,-4.15
-0.041,-0.905,0.579,2.502,-3.174,-4.089
-0.003,-0.939,0.598,-0.244,-0.488,-2.441
0.013,-0.939,0.591,-0.793,-1.831,-3.54
0.019,-0.916,0.603,-0.671,-4.822,-4.395
0.026,-0.901,0.603,-1.221,-8.85,-2.258
0.003,-0.895,0.554,-2.014,-13.367,1.709
-0.036,-0.901,0.499,-3.357,-14.343,5.981
-0.062,-0.918,0.466,-2.991,-10.498,6.531
-0.066,-0.926,0.474,-1.038,-3.357,2.441
-0.043,-0.93,0.501,1.587,2.991,-3.174
-0.024,-0.922,0.512,3.54,5.981,-6.897
-0.009,-0.909,0.508,5.066,6.531,-8.301
-0.003,-0.907,0.505,6.958,6.409,-9.033
-0.003,-0.921,0.508,9.277,5.005,-9.216
-0.012,-0.944,0.497,9.644,3.235,-7.629
-0.021,-0.975,0.484,7.446,1.831,-4.333
-0.023,-1.005,0.472,4.028,1.099,-0.854
-0.018,-1.025,0.463,-0.305,0.244,1.404
-0.016,-1.02,0.44,-4.639,-1.465,1.892
-0.025,-0.997,0.397,-7.935,-3.296,0.671
-0.026,-0.975,0.384,-9.827,-2.197,-1.526
-0.013,-0.957,0.412,-10.376,0.427,-2.93
-0.001,-0.935,0.442,-9.399,1.587,-3.235
0.003,-0.925,0.461,-8.423,0.916,-1.526
-0.01,-0.92,0.464,-7.751,0.0,1.282
-0.026,-0.931,0.456,-5.798,-0.183,2.808
-0.009,-0.938,0.464,-4.272,1.77,0.793
0.02,-0.916,0.483,-4.883,3.784,-2.808
0.038,-0.891,0.501,-6.836,3.967,-4.883
0.061,-0.89,0.513,-10.01,2.014,-4.883
0.065,-0.893,0.514,-13.55,-1.77,-3.418
0.046,-0.882,0.493,-16.968,-5.92,-2.38
0.009,-0.863,0.464,-18.372,-8.789,-2.319
-0.021,-0.845,0.456,-17.273,-7.996,-2.38
-0.025,-0.832,0.462,-14.526,-4.639,-2.014
-0.014,-0.82,0.478,-11.597,-1.099,-1.099
0.0,-0.817,0.497,-8.484,1.282,1.099
0.008,-0.823,0.509,-5.31,2.075,3.784
-0.004,-0.829,0.508,-2.014,1.282,5.737
-0.008,-0.858,0.508,1.953,0.671,7.08
-0.016,-0.905,0.511,4.211,0.366,5.92
-0.028,-0.944,0.512,3.357,0.061,0.549
-0.031,-0.952,0.509,0.183,0.0,-6.287
-0.021,-0.927,0.497,-3.906,0.488,-11.536
-0.012,-0.894,0.485,-7.08,1.282,-13.733
-0.009,-0.88,0.488,-9.155,2.869,-13.367
-0.004,-0.879,0.495,-10.254,3.357,-12.024
-0.009,-0.878,0.487,-9.644,1.953,-11.108
-0.022,-0.867,0.474,-7.69,0.793,-9.094
-0.022,-0.871,0.463,-5.005,0.122,-6.042
-0.008,-0.881,0.468,-2.991,0.61,-3.723
0.011,-0.885,0.48,-0.916,0.671,-2.686
0.025,-0.886,0.499,0.671,-0.732,-1.892
0.026,-0.882,0.503,0.732,-3.174,-1.465
0.022,-0.891,0.5,0.427,-5.31,-0.854
0.017,-0.902,0.498,-1.099,-7.08,-0.793
0.01,-0.907,0.497,-3.052,-7.812,-1.526
0.002,-0.903,0.502,-4.639,-7.568,-2.625
-0.006,-0.9,0.513,-5.92,-6.714,-4.517
-0.014,-0.899,0.521,-7.812,-5.493,-6.592
-0.018,-0.9,0.526,-9.521,-4.15,-8.484
-0.016,-0.896,0.524,-10.01,-2.441,-9.399
-0.023,-0.893,0.519,-10.254,-0.488,-9.644
1.417,2.445,-0.621,175.72,4.822,70.313
1.986,2.841,-1.281,177.795,-29.419,74.036
2.676,2.914,-1.925,84.351,-43.274,18.982
2.952,2.832,-2.057,-44.006,-21.729,-114.746
2.694,3.189,-1.682,-97.534,-7.385,-283.752
2.294,3.853,-1.106,-59.448,-42.786,-433.838
1.907,4.0,-0.445,-3.052,-123.718,-530.029
1.153,4.0,0.134,59.937,-236.023,-577.393
0.344,3.769,0.411,159.302,-360.168,-609.741
-0.635,3.119,0.422,265.747,-481.567,-640.137
-1.591,1.861,-0.079,367.432,-571.533,-643.127
-1.951,0.085,-0.446,374.634,-598.083,-585.632
-2.964,-1.923,-0.177,275.513,-564.392,-485.291
-4.0,-3.738,-0.133,195.068,-479.187,-350.22
-4.0,-4.0,-1.306,106.506,-396.973,-219.177
-3.997,-4.0,-2.639,-6.226,-278.259,-149.536
-2.642,-4.0,-2.237,-77.515,-62.317,-202.393
-1.223,-3.285,-1.01,-81.36,125.977,-295.166
-0.624,-1.949,0.371,-78.308,198.364,-300.598
-0.426,-0.918,0.967,-96.008,155.334,-234.985
-0.364,-0.535,1.0,-85.022,58.35,-144.47
-0.528,-0.619,0.662,-26.978,-36.926,-75.989
-0.628,-0.875,0.476,56.458,-97.839,-55.237
-0.52,-1.094,0.373,127.686,-128.174,-59.998
-0.473,-1.231,0.287,165.405,-142.639,-64.453
-0.453,-1.19,0.313,170.105,-138.794,-50.72
-0.441,-1.384,0.483,150.208,-120.483,-19.104
-0.418,-1.465,0.534,122.864,-103.577,5.432
-0.369,-1.296,0.557,87.891,-89.905,14.954
-0.41,-1.153,0.483,49.683,-73.73,14.099
-0.394,-1.077,0.464,19.592,-53.284,4.211
-0.307,-0.969,0.487,3.235,-34.302,-13.428
-0.288,-0.81,0.387,0.854,-20.264,-29.968
-0.259,-0.736,0.429,6.47,-2.808,-31.86
-0.171,-0.768,0.519,15.747,11.169,-22.766
-0.106,-0.801,0.507,28.442,12.817,-14.099
-0.059,-0.799,0.477,40.649,8.667,-7.385
0.008,-0.808,0.481,49.194,2.686,-0.366
0.069,-0.831,0.467,55.481,-6.165,5.676
0.099,-0.876,0.415,58.35,-16.785,9.583
0.07,-0.941,0.397,54.749,-25.146,13.184
0.004,-1.035,0.412,45.41,-28.625,13.611
-0.054,-1.091,0.418,30.579,-29.419,10.986
-0.119,-1.097,0.449,13.184,-27.954,7.08
-0.168,-1.069,0.476,-2.625,-24.353,4.761
-0.187,-1.016,0.459,-16.418,-20.508,2.991
-0.2,-0.979,0.425,-25.757,-14.404,-0.061
-0.202,-0.943,0.415,-31.738,-5.066,-4.7
-0.169,-0.918,0.429,-35.461,4.822,-10.742
-0.125,-0.899,0.438,-37.109,12.024,-17.578
-0.09,-0.881,0.437,-37.415,15.32,-23.621
-0.071,-0.863,0.422,-37.109,15.686,-27.466
-0.044,-0.842,0.411,-35.645,14.587,-28.503
-0.016,-0.811,0.421,-30.823,12.207,-27.527
0.0,-0.79,0.444,-22.4,8.118,-24.963
0.008,-0.796,0.463,-14.709,2.014,-20.874
-0.01,-0.817,0.469,-8.911,-4.456,-15.015
-0.043,-0.85,0.464,-4.517,-10.193,-9.46
-0.082,-0.885,0.453,-1.404,-13.0,-5.92
-0.115,-0.92,0.452,-0.183,-12.329,-4.272
-0.135,-0.956,0.468,-0.671,-9.277,-3.418
-0.151,-0.977,0.474,-3.357,-6.226,-3.235
-0.171,-0.978,0.465,-7.935,-3.845,-2.991
-0.188,-0.978,0.446,-12.268,-0.427,-3.235
-0.177,-0.982,0.445,-14.221,4.761,-4.761
-0.154,-0.969,0.459,-14.648,9.888,-6.958
-0.144,-0.944,0.467,-13.977,13.855,-8.728
-0.119,-0.944,0.49,-13.306,16.846,-10.315
-0.076,-0.946,0.514,-15.198,17.395,-11.963
-0.053,-0.928,0.512,-18.188,13.977,-14.465
-0.047,-0.905,0.483,-19.47,9.094,-16.113
-0.051,-0.887,0.455,-19.775,5.676,-15.625
-0.06,-0.89,0.45,-19.287,4.944,-15.076
-0.062,-0.908,0.463,-18.494,5.188,-14.771
-0.056,-0.92,0.475,-17.822,4.761,-14.893
-0.061,-0.916,0.483,-17.456,3.174,-14.526
-0.087,-0.903,0.482,-17.151,1.526,-13.489
-0.101,-0.901,0.478,-15.442,1.526,-10.803
-0.103,-0.908,0.485,-13.0,3.296,-7.874
-0.102,-0.914,0.49,-11.047,5.798,-6.531
-0.094,-0.91,0.512,-10.437,7.69,-6.104
-0.086,-0.904,0.529,-10.803,8.24,-5.981
-0.076,-0.908,0.531,-10.925,6.836,-5.676
-0.077,-0.911,0.531,-11.353,5.188,-5.31
-0.083,-0.915,0.531,-12.39,3.784,-6.348
-0.087,-0.913,0.523,-14.526,2.808,-7.935
-0.095,-0.915,0.511,-16.968,2.625,-9.277
-0.11,-0.909,0.494,-18.982,3.174,-10.193
-0.117,-0.896,0.474,-19.775,4.211,-11.414
-0.106,-0.884,0.471,-18.616,6.348,-12.207
-0.093,-0.855,0.483,-16.052,8.118,-12.085
-0.073,-0.839,0.491,-11.353,8.545,-9.827
-0.052,-0.842,0.508,-6.592,7.568,-5.066
-0.043,-0.852,0.525,-2.258,4.211,0.671
-0.036,-0.872,0.509,1.343,-1.282,5.432
-0.038,-0.889,0.487,4.639,-5.676,8.179
-0.049,-0.906,0.485,6.714,-7.263,7.874
-0.058,-0.912,0.494,6.897,-7.263,5.554
-0.067,-0.922,0.499,6.287,-6.897,1.892
-0.074,-0.932,0.507,4.883,-6.409,-0.916
-0.084,-0.938,0.519,0.916,-5.554,-2.869
-0.092,-0.932,0.523,-3.723,-4.639,-4.578
-0.097,-0.914,0.52,-6.714,-3.967,-5.432
-0.09,-0.89,0.529,-8.362,-2.319,-5.188
-0.077,-0.869,0.544,-9.399,-0.916,-3.723
-0.069,-0.863,0.549,-9.583,-1.099,-1.831
-0.08,-0.857,0.543,-8.789,-2.136,-0.244
-0.087,-0.861,0.533,-7.446,-3.113,0.671
-0.085,-0.856,0.531,-6.348,-2.808,1.404
-0.086,-0.846,0.537,-5.554,-2.014,1.465
-0.086,-0.84,0.538,-4.395,-2.075,1.343
-0.088,-0.843,0.538,-2.869,-2.075,0.732
-0.092,-0.853,0.537,-1.77,-1.343,-0.244
-0.087,-0.871,0.539,-2.075,-0.732,-1.221
-0.084,-0.876,0.535,-2.563,-0.427,-2.563
-0.087,-0.869,0.526,-2.319,-0.671,-2.93
-0.09,-0.859,0.522,-1.648,-0.244,-2.563
-0.091,-0.865,0.527,-0.549,0.549,-1.953
-0.08,-0.873,0.531,0.122,0.732,-1.404
1.155,1.839,-0.224,6.653,38.696,-6.409
1.32,2.217,-0.373,11.169,34.546,-55.054
1.489,2.689,-0.496,17.09,30.701,-118.713
1.64,3.19,-0.577,37.598,19.897,-187.073
1.794,3.634,-0.643,70.068,1.343,-256.653
1.77,3.861,-0.638,94.788,-19.165,-332.458
1.492,3.846,-0.566,116.089,-42.236,-406.677
1.081,3.66,-0.492,144.958,-72.571,-473.145
0.598,3.32,-0.381,176.514,-112.427,-537.903
0.191,2.893,-0.195,194.153,-167.786,-599.67
-0.607,2.675,0.118,218.323,-237.244,-652.039
-2.001,2.354,0.407,301.819,-303.772,-698.608
-2.863,1.42,0.143,383.789,-352.356,-719.604
-3.382,0.014,-0.691,360.168,-384.521,-646.851
-4.0,-1.739,-1.565,324.158,-342.59,-526.917
-4.0,-3.917,-2.022,275.757,-230.896,-418.884
-4.0,-4.0,-1.797,149.17,-99.67,-330.505
-3.08,-4.0,-1.678,-5.615,25.452,-329.895
-2.063,-4.0,-1.416,-110.046,119.995,-407.532
-1.415,-3.037,-1.178,-159.729,170.776,-427.673
-0.73,-1.395,-0.942,-151.123,190.979,-347.412
-0.588,-0.483,0.271,-131.104,224.67,-213.501
-0.428,-0.486,1.023,-121.216,182.861,-93.323
-0.141,-0.81,0.98,-62.073,50.415,-25.269
-0.321,-0.892,0.613,28.442,-72.144,-13.55
-0.491,-0.829,0.259,111.572,-150.208,-22.095
-0.459,-1.066,0.004,160.278,-178.833,-19.104
-0.549,-1.395,-0.042,177.368,-166.504,-7.751
-0.629,-1.752,0.136,164.551,-132.629,7.812
-0.597,-2.021,0.294,127.075,-100.159,17.7
-0.643,-2.019,0.325,75.073,-72.815,10.62
-0.629,-1.723,0.244,14.709,-43.945,-8.728
-0.475,-1.449,0.244,-40.527,-10.254,-28.809
-0.335,-1.165,0.224,-73.975,18.555,-47.241
-0.174,-0.898,0.238,-86.609,38.818,-57.739
-0.069,-0.723,0.258,-83.191,50.72,-56.946
-0.004,-0.594,0.284,-66.162,54.81,-46.082
0.094,-0.632,0.381,-42.725,52.185,-27.405
0.145,-0.754,0.458,-17.639,39.917,-10.681
0.116,-0.843,0.427,4.883,17.273,-1.282
0.07,-0.908,0.379,19.714,-4.333,4.028
0.015,-0.984,0.315,26.611,-20.569,8.423
-0.05,-1.068,0.274,28.87,-28.992,8.85
-0.102,-1.106,0.279,28.442,-30.64,4.7
-0.142,-1.096,0.291,24.658,-29.297,-1.526
-0.181,-1.082,0.302,19.897,-25.696,-4.7
-0.218,-1.086,0.314,13.367,-20.508,-3.479
-0.221,-1.101,0.323,5.31,-14.587,-0.244
-0.222,-1.107,0.313,-2.319,-9.277,0.61
-0.218,-1.092,0.315,-8.728,-4.333,-0.549
-0.193,-1.053,0.312,-14.832,-0.244,-3.113
-0.154,-1.009,0.3,-18.799,3.052,-5.31
-0.111,-0.976,0.309,-20.203,6.226,-5.493
-0.073,-0.95,0.326,-21.179,7.935,-4.089
-0.045,-0.931,0.33,-21.545,7.019,-2.441
-0.028,-0.918,0.333,-20.264,5.31,-0.427
-0.026,-0.91,0.34,-18.372,2.869,0.122
-0.039,-0.89,0.345,-16.418,0.732,-1.343
-0.052,-0.882,0.341,-13.733,-0.671,-4.272
-0.06,-0.889,0.348,-10.986,-0.854,-5.859
-0.068,-0.907,0.368,-9.705,-0.488,-6.714
-0.076,-0.924,0.372,-9.094,-1.099,-6.348
-0.089,-0.942,0.365,-7.996,-1.831,-5.493
-0.112,-0.954,0.35,-7.263,-2.075,-4.578
-0.116,-0.963,0.348,-6.592,-0.793,-3.662
-0.109,-0.961,0.35,-6.348,0.061,-2.808
-0.112,-0.951,0.348,-6.226,-0.244,-1.587
-0.119,-0.95,0.328,-6.409,-1.16,0.366
-0.126,-0.965,0.304,-5.31,-1.038,2.075
-0.116,-0.989,0.308,-3.418,0.854,1.953
-0.096,-0.999,0.33,-2.93,2.319,0.671
-0.083,-0.997,0.336,-3.479,1.587,-1.709
-0.083,-0.994,0.325,-4.944,-0.61,-3.54
-0.081,-0.989,0.319,-6.836,-2.197,-4.517
-0.076,-0.974,0.317,-7.996,-2.93,-4.456
-0.086,-0.962,0.322,-8.179,-3.113,-4.15
-0.089,-0.963,0.337,-8.057,-2.93,-3.235
-0.081,-0.975,0.352,-8.728,-3.296,-2.93
-0.08,-0.987,0.366,-9.705,-3.967,-2.686
-0.092,-0.986,0.382,-10.925,-4.211,-2.686
-0.098,-0.977,0.385,-12.634,-4.272,-2.625
-0.101,-0.965,0.389,-14.771,-3.723,-2.38
-0.101,-0.954,0.392,-16.296,-2.441,-2.197
-0.103,-0.942,0.392,-17.212,-1.404,-2.502
-0.105,-0.933,0.392,-17.517,0.0,-3.54
-0.101,-0.927,0.398,-17.822,1.16,-4.456
-0.093,-0.922,0.401,-17.517,1.587,-5.249
-0.09,-0.921,0.402,-16.846,1.465,-6.042
-0.084,-0.918,0.403,-16.052,1.282,-6.653
-0.083,-0.9,0.401,-14.465,0.488,-7.202
-0.089,-0.881,0.393,-11.414,-0.122,-7.568
-0.092,-0.871,0.398,-7.996,-0.244,-7.202
-0.095,-0.877,0.406,-4.7,-0.549,-6.042
-0.101,-0.897,0.408,-1.953,-1.465,-4.089
-0.11,-0.925,0.401,-1.16,-2.563,-2.258
-0.115,-0.946,0.393,-2.258,-2.869,-1.282
-0.113,-0.958,0.387,-3.601,-2.258,-1.526
-0.11,-0.957,0.383,-4.517,-0.916,-2.869
-0.102,-0.949,0.387,-4.944,0.427,-4.639
-0.09,-0.935,0.395,-6.226,1.648,-5.615
-0.094,-0.934,0.404,-7.568,1.77,-5.92
-0.11,-0.939,0.4,-9.888,1.038,-5.31
-0.128,-0.948,0.389,-12.939,1.038,-5.493
-0.14,-0.951,0.38,-16.052,2.258,-7.202
-0.139,-0.949,0.377,-18.921,4.7,-10.01
-0.116,-0.937,0.38,-20.691,7.996,-12.817
-0.09,-0.922,0.397,-21.423,10.742,-14.648
-0.068,-0.901,0.411,-21.118,11.536,-15.076
-0.061,-0.882,0.415,-19.226,9.644,-14.587
-0.059,-0.878,0.42,-15.32,6.47,-12.634
-0.058,-0.882,0.43,-11.108,2.747,-9.827
-0.06,-0.878,0.435,-6.775,-1.099,-7.202
-0.069,-0.882,0.441,-3.479,-4.7,-5.432
-0.084,-0.899,0.445,-1.282,-7.751,-3.418
-0.099,-0.923,0.449,-0.305,-9.949,-1.953
-0.121,-0.948,0.442,-0.549,-11.047,-1.648
-0.142,-0.959,0.431,-1.404,-10.559,-2.563
-0.154,-0.959,0.417,-2.258,-8.423,-3.906
-0.157,-0.951,0.423,-2.991,-4.944,-5.615
1.076,1.712,-0.064,19.165,13.123,-21.423
1.163,1.922,-0.184,37.964,12.756,-56.824
1.272,2.145,-0.299,62.256,11.78,-105.774
1.422,2.38,-0.415,92.163,9.399,-164.49
1.533,2.619,-0.494,114.258,6.287,-226.013
1.49,2.756,-0.475,121.704,0.427,-283.997
1.298,2.713,-0.41,121.338,-16.724,-334.656
1.088,2.555,-0.295,125.671,-46.326,-378.662
0.811,2.381,-0.265,141.174,-89.905,-425.232
0.61,2.144,-0.264,155.762,-138.123,-477.539
0.386,1.914,-0.123,157.349,-184.509,-524.353
-0.173,1.767,0.262,170.654,-230.469,-571.716
-0.841,1.424,0.277,199.951,-291.199,-617.676
-1.363,0.742,0.008,188.11,-352.6,-634.094
-2.24,-0.168,-0.322,152.893,-374.817,-622.925
-3.215,-1.213,-0.606,136.353,-344.91,-605.713
-3.94,-2.369,-0.693,118.103,-288.025,-563.11
-4.0,-3.408,-0.705,94.543,-222.351,-505.615
-3.809,-3.968,-0.895,70.129,-157.471,-448.853
-3.006,-3.534,-1.048,49.866,-78.003,-383.728
-2.084,-2.836,-1.082,65.613,4.211,-288.635
-1.365,-2.328,-0.552,86.243,77.576,-160.645
-1.058,-2.026,0.373,77.026,113.22,-44.861
-0.861,-1.918,0.644,67.017,59.937,15.198
-0.823,-1.762,0.485,72.571,-25.574,32.776
-0.886,-1.594,0.296,86.121,-84.045,37.415
-0.945,-1.601,0.053,94.971,-105.713,39.429
-0.841,-1.712,0.034,92.224,-90.454,37.354
-0.666,-1.726,0.043,79.285,-60.669,26.001
-0.505,-1.563,0.032,59.509,-29.114,9.766
-0.291,-1.402,0.198,33.997,4.272,-0.793
-0.101,-1.284,0.307,9.949,25.696,-9.888
0.091,-1.059,0.539,-7.446,31.067,-23.254
0.172,-0.68,0.43,-19.775,13.245,-28.625
0.177,-0.621,0.454,-32.471,1.343,-13.611
0.155,-0.75,0.505,-33.203,-7.812,-1.221
0.078,-0.739,0.396,-21.667,-24.109,-0.977
-0.012,-0.765,0.324,-11.841,-29.419,-1.77
-0.039,-0.886,0.396,-7.263,-23.56,-0.854
-0.085,-0.978,0.402,-1.343,-20.325,-1.831
-0.146,-1.018,0.417,1.16,-15.991,-3.174
-0.161,-1.074,0.424,-5.066,-10.132,-4.395
-0.187,-1.119,0.413,-15.747,-4.456,-6.775
-0.226,-1.13,0.396,-25.452,1.648,-11.78
-0.231,-1.107,0.379,-34.973,9.766,-19.348
-0.215,-1.055,0.382,-42.603,18.86,-27.71
-0.186,-0.982,0.415,-46.204,26.367,-34.363
-0.145,-0.912,0.448,-45.532,28.992,-36.377
-0.116,-0.861,0.463,-41.443,26.245,-33.875
-0.109,-0.827,0.467,-34.485,19.836,-28.259
-0.131,-0.819,0.454,-24.475,11.78,-21.484
-0.138,-0.838,0.426,-13.062,4.028,-14.343
-0.127,-0.867,0.411,-2.991,-1.099,-7.141
-0.119,-0.902,0.415,4.333,-3.784,-0.671
-0.115,-0.948,0.422,7.141,-5.188,5.798
-0.129,-0.985,0.411,5.554,-5.92,10.01
-0.134,-1.005,0.387,2.93,-4.395,9.949
-0.117,-0.999,0.369,-0.305,-0.244,5.798
-0.085,-0.969,0.375,-5.371,5.249,-0.244
-0.037,-0.933,0.392,-9.949,9.644,-4.761
0.004,-0.901,0.411,-13.611,11.169,-6.409
0.014,-0.883,0.427,-15.991,9.277,-5.859
-0.003,-0.872,0.416,-16.785,4.578,-4.7
-0.04,-0.882,0.382,-14.099,0.305,-4.7
-0.065,-0.909,0.371,-9.583,-0.122,-6.897
-0.07,-0.922,0.388,-7.263,1.587,-10.376
-0.07,-0.92,0.4,-6.348,1.892,-12.939
-0.074,-0.925,0.403,-5.615,0.61,-12.878
-0.084,-0.939,0.409,-5.554,-1.038,-10.376
-0.102,-0.956,0.419,-6.042,-2.502,-6.592
-0.123,-0.95,0.412,-5.371,-3.479,-3.357
-0.135,-0.961,0.399,-2.808,-3.662,-1.404
-0.121,-0.98,0.4,-1.343,-2.502,-0.488
-0.105,-0.994,0.415,-1.587,-1.404,-1.038
-0.095,-0.995,0.421,-2.319,-1.404,-2.014
-0.086,-0.993,0.42,-4.822,-2.686,-2.563
-0.086,-0.985,0.422,-7.568,-3.967,-2.625
-0.097,-0.98,0.414,-9.277,-4.761,-1.648
-0.108,-0.979,0.405,-11.414,-5.127,-1.282
-0.109,-0.972,0.407,-13.733,-4.089,-1.77
-0.099,-0.957,0.417,-15.564,-2.441,-2.502
-0.09,-0.945,0.433,-16.785,-1.099,-2.38
-0.087,-0.928,0.443,-18.677,-1.221,-1.892
-0.088,-0.907,0.444,-20.02,-2.441,-1.892
-0.097,-0.875,0.438,-19.531,-2.991,-1.953
-0.103,-0.855,0.438,-17.456,-2.075,-1.77
-0.095,-0.845,0.456,-14.526,0.244,-0.977
-0.082,-0.839,0.473,-12.207,1.404,-0.793
-0.074,-0.837,0.473,-9.827,0.732,-0.916
-0.073,-0.847,0.473,-7.202,-0.061,-0.671
-0.078,-0.871,0.476,-4.7,-1.16,-1.038
-0.077,-0.9,0.474,-4.15,-2.197,-1.16
-0.083,-0.914,0.467,-4.456,-3.113,-1.526
-0.094,-0.922,0.464,-6.042,-3.784,-2.014
-0.105,-0.92,0.46,-7.446,-3.906,-2.563
-0.114,-0.908,0.453,-7.263,-3.723,-3.174
-0.113,-0.904,0.461,-6.775,-2.808,-3.174
-0.108,-0.902,0.467,-6.592,-1.892,-2.808
-0.104,-0.89,0.456,-5.798,-1.709,-1.953
-0.097,-0.892,0.448,-4.761,-1.343,-0.671
-0.08,-0.9,0.452,-3.662,-0.366,0.671
-0.065,-0.905,0.456,-2.869,-0.122,1.343
-0.064,-0.906,0.461,-1.831,-1.16,1.343
-0.07,-0.914,0.462,-1.16,-2.441,0.549
-0.073,-0.926,0.463,-1.526,-3.296,-0.916
-0.08,-0.931,0.462,-3.174,-3.601,-2.747
-0.093,-0.93,0.465,-5.31,-3.906,-3.845
-0.109,-0.924,0.466,-6.836,-4.089,-4.639
-0.119,-0.931,0.456,-6.409,-3.906,-5.432
-0.115,-0.929,0.445,-6.409,-2.625,-5.615
-0.099,-0.919,0.44,-7.568,0.0,-5.249
-0.085,-0.903,0.451,-7.935,3.479,-3.967
-0.073,-0.891,0.461,-6.409,5.493,-2.625
-0.061,-0.881,0.463,-3.723,5.371,-2.136
-0.048,-0.878,0.464,-1.282,4.272,-1.77
-0.048,-0.883,0.468,0.061,2.625,-0.977
-0.055,-0.897,0.468,0.427,-0.122,0.244
-0.061,-0.916,0.457,-0.122,-3.174,0.732
-0.064,-0.926,0.452,-0.977,-4.761,0.244
1.043,2.188,-0.43,114.197,5.615,-57.861
1.218,2.521,-0.603,145.142,-3.479,-97.29
1.369,2.745,-0.751,162.964,-6.592,-141.296
1.507,2.845,-0.812,168.518,-6.531,-193.481
1.523,2.802,-0.802,164.795,-13.733,-262.268
1.339,2.721,-0.758,160.95,-36.499,-354.065
0.986,2.657,-0.623,162.476,-71.472,-459.961
0.503,2.599,-0.446,163.696,-116.089,-562.012
0.018,2.419,-0.268,162.415,-173.828,-641.602
-0.396,2.311,-0.007,163.879,-246.582,-690.308
-1.116,2.313,0.121,184.875,-331.909,-705.383
-2.301,1.673,0.362,248.352,-379.333,-702.209
-3.359,0.38,0.418,287.476,-395.081,-671.753
-3.963,-1.565,-0.339,253.723,-419.495,-550.964
-4.0,-3.512,-1.755,193.787,-379.272,-425.476
-4.0,-4.0,-2.291,127.93,-247.437,-354.797
-3.956,-4.0,-1.668,28.015,-54.199,-335.632
-2.652,-4.0,-0.932,-73.792,112.244,-397.827
-1.72,-3.75,-0.554,-106.079,176.453,-437.317
-0.896,-2.064,-0.603,-94.299,181.641,-361.511
-0.682,-0.958,0.155,-64.026,210.083,-209.106
-0.704,-0.807,1.106,-61.218,220.52,-55.054
-0.294,-1.309,1.16,-34.729,126.099,49.988
-0.135,-1.524,0.982,15.442,13.733,83.496
-0.18,-1.303,0.681,64.636,-69.519,59.692
-0.316,-1.032,0.234,95.459,-113.342,32.593
-0.304,-1.049,0.115,108.582,-102.722,23.071
-0.136,-1.241,0.308,113.525,-67.261,18.677
-0.033,-1.237,0.454,111.389,-42.297,9.338
0.103,-1.114,0.504,91.003,-32.837,5.676
0.204,-1.138,0.539,57.678,-28.442,12.817
0.185,-1.189,0.496,30.09,-29.358,16.357
0.148,-1.111,0.452,12.146,-30.518,8.301
0.143,-0.957,0.348,-1.77,-29.48,-5.127
0.175,-0.863,0.339,-11.414,-20.752,-14.526
0.15,-0.808,0.342,-14.648,-11.23,-19.226
0.128,-0.788,0.384,-14.099,-3.601,-20.142
0.101,-0.825,0.415,-11.536,0.427,-18.372
0.059,-0.892,0.449,-9.338,1.343,-14.709
0.021,-0.937,0.453,-7.263,-2.075,-11.902
-0.044,-0.962,0.394,-4.578,-7.324,-9.949
-0.122,-1.0,0.355,-3.418,-7.874,-8.85
-0.16,-1.06,0.338,-5.798,-4.456,-9.583
-0.159,-1.104,0.317,-10.254,0.0,-12.817
-0.162,-1.108,0.313,-14.893,4.761,-18.494
-0.17,-1.075,0.338,-20.02,9.277,-24.17
-0.147,-1.036,0.378,-24.109,12.207,-27.283
-0.125,-0.983,0.412,-26.123,11.292,-26.978
-0.133,-0.914,0.405,-24.902,7.568,-24.231
-0.134,-0.88,0.383,-20.142,4.272,-18.616
-0.108,-0.889,0.395,-13.855,3.662,-12.085
-0.078,-0.901,0.423,-8.24,3.418,-7.08
-0.061,-0.899,0.435,-3.723,0.793,-3.967
-0.044,-0.901,0.431,-1.648,-2.197,-1.892
-0.027,-0.906,0.418,-2.258,-4.089,-0.366
-0.019,-0.908,0.402,-4.272,-4.7,0.305
-0.017,-0.907,0.394,-6.226,-4.15,-0.305
-0.022,-0.898,0.391,-8.118,-2.686,-1.709
-0.037,-0.883,0.387,-8.484,-0.793,-3.906
-0.045,-0.88,0.385,-6.531,1.709,-6.836
-0.033,-0.896,0.39,-2.991,4.211,-9.399
-0.013,-0.909,0.396,-0.671,5.188,-10.864
-0.008,-0.913,0.399,0.244,4.333,-10.62
-0.01,-0.918,0.393,0.854,1.648,-8.728
-0.018,-0.925,0.378,2.075,-1.16,-6.165
-0.048,-0.934,0.366,5.005,-3.052,-4.761
-0.067,-0.957,0.367,9.277,-3.296,-4.395
-0.056,-0.987,0.371,10.986,-3.54,-4.272
-0.059,-0.998,0.377,9.399,-4.578,-4.578
-0.073,-1.002,0.375,6.775,-6.775,-4.456
-0.083,-1.014,0.365,2.686,-8.85,-2.991
-0.105,-1.016,0.354,-1.343,-9.949,-1.282
-0.133,-1.002,0.336,-3.845,-9.338,-0.671
-0.134,-0.998,0.333,-4.333,-6.104,-1.038
-0.096,-0.995,0.355,-4.883,-1.953,-2.197
-0.058,-0.984,0.384,-6.287,0.244,-2.625
-0.04,-0.971,0.405,-8.057,-0.671,-2.014
-0.036,-0.957,0.415,-10.925,-3.723,-0.671
-0.044,-0.944,0.415,-13.55,-7.019,0.488
-0.057,-0.938,0.417,-13.855,-9.399,0.427
-0.055,-0.94,0.436,-13.55,-10.01,-1.099
-0.046,-0.946,0.455,-14.709,-9.827,-2.686
-0.052,-0.936,0.471,-17.944,-10.193,-4.089
-0.059,-0.91,0.478,-21.179,-10.559,-5.005
-0.064,-0.879,0.473,-22.583,-10.193,-5.127
-0.086,-0.849,0.474,-21.24,-8.972,-4.517
-0.107,-0.84,0.478,-17.761,-6.653,-3.54
-0.11,-0.848,0.485,-13.184,-4.15,-2.991
-0.103,-0.858,0.49,-8.301,-1.77,-2.93
-0.09,-0.863,0.495,-4.333,0.671,-2.93
-0.075,-0.877,0.499,-0.488,1.953,-2.014
-0.064,-0.898,0.495,2.319,1.831,-0.732
-0.056,-0.916,0.477,2.747,0.793,0.061
-0.055,-0.932,0.456,2.808,-0.427,0.671
-0.054,-0.945,0.44,2.625,-1.343,1.038
-0.052,-0.95,0.428,2.747,-1.648,1.343
-0.047,-0.952,0.422,2.502,-1.709,1.77
-0.047,-0.949,0.418,1.099,-2.38,1.709
-0.049,-0.94,0.411,-0.183,-3.052,1.465
-0.053,-0.934,0.407,-0.183,-3.479,1.526
-0.051,-0.937,0.407,0.122,-3.479,1.892
-0.042,-0.946,0.414,-0.244,-3.296,2.38
-0.036,-0.944,0.419,-0.916,-3.662,2.991
-0.039,-0.938,0.415,-0.977,-4.456,3.296
-0.049,-0.938,0.415,-1.038,-4.395,3.845
-0.055,-0.944,0.424,-1.892,-3.906,4.333
-0.056,-0.942,0.436,-3.357,-3.845,4.15
-0.057,-0.938,0.442,-3.662,-4.089,3.296
-0.049,-0.926,0.442,-3.54,-5.127,3.296
-0.046,-0.916,0.443,-3.296,-6.531,3.784
-0.046,-0.919,0.442,-2.441,-7.812,4.761
-0.049,-0.927,0.439,-2.197,-8.423,5.188
-0.054,-0.937,0.441,-2.747,-8.301,3.418
-0.058,-0.943,0.445,-3.784,-7.69,0.427
-0.059,-0.945,0.439,-5.31,-7.507,-2.869
-0.054,-0.946,0.429,-7.385,-7.263,-5.127
-0.05,-0.942,0.423,-9.583,-6.042,-6.287
-0.054,-0.929,0.424,-11.353,-4.333,-7.568
-0.053,-0.917,0.43,-11.658,-1.953,-8.484
0.773,1.991,-0.017,22.217,23.865,3.662
0.759,2.463,-0.136,31.067,15.93,-15.381
0.913,2.747,-0.385,61.951,11.353,-56.458
1.167,3.043,-0.665,86.304,11.78,-119.873
1.379,3.265,-0.849,94.238,20.996,-210.266
1.57,3.363,-1.019,115.601,33.936,-314.453
1.664,3.378,-0.978,142.883,45.41,-412.109
1.403,3.291,-0.717,166.016,42.969,-494.568
0.882,3.145,-0.511,184.448,7.324,-567.139
0.284,2.878,-0.333,195.801,-58.899,-640.198
-0.091,2.488,-0.076,201.904,-151.978,-713.135
-0.771,2.552,0.248,238.464,-284.668,-789.368
-1.976,2.766,-0.495,348.755,-411.56,-874.084
-3.446,2.201,-0.577,433.96,-440.491,-889.954
-4.0,0.494,-0.829,404.968,-476.013,-766.907
-4.0,-2.391,-1.22,329.895,-447.998,-549.744
-4.0,-4.0,-2.014,194.275,-362.854,-331.299
-4.0,-4.0,-2.726,29.297,-211.243,-166.016
-4.0,-4.0,-2.531,-110.901,4.944,-179.077
-3.013,-4.0,-1.674,-217.468,189.819,-336.121
-1.566,-2.899,-0.857,-267.273,252.93,-446.838
-0.52,-1.145,-0.442,-221.802,222.229,-439.514
-0.345,0.081,0.017,-117.31,197.205,-316.895
-0.813,0.49,0.936,-86.792,209.595,-111.145
-0.359,-0.711,1.415,-41.138,134.033,64.941
-0.007,-1.435,1.266,47.668,-1.038,123.962
-0.346,-1.313,0.382,124.573,-119.019,103.516
-0.303,-1.072,0.027,161.255,-157.227,75.195
-0.024,-1.338,0.149,165.039,-138.855,68.237
-0.117,-1.313,0.045,162.17,-123.535,57.678
-0.263,-1.269,-0.047,136.23,-98.389,56.03
-0.245,-1.384,0.044,90.21,-52.307,50.598
-0.12,-1.496,0.274,47.913,-6.287,34.912
-0.005,-1.453,0.564,12.146,19.47,2.625
0.087,-1.201,0.593,-22.034,13.611,-30.334
0.182,-0.959,0.542,-51.208,-3.235,-47.18
0.149,-0.82,0.43,-66.772,-15.198,-45.105
-0.022,-0.745,0.289,-70.74,-18.311,-31.067
-0.119,-0.8,0.269,-68.42,-7.385,-15.686
-0.124,-0.896,0.34,-60.608,7.874,-10.437
-0.108,-0.854,0.446,-48.035,15.991,-15.381
-0.053,-0.806,0.541,-38.757,13.733,-18.799
-0.076,-0.809,0.53,-33.203,3.052,-17.395
-0.136,-0.864,0.534,-26.306,-7.629,-13.489
-0.223,-0.919,0.509,-17.517,-17.7,-12.207
-0.313,-0.941,0.435,-9.705,-24.109,-12.573
-0.335,-0.995,0.422,-6.47,-21.118,-12.268
-0.342,-1.05,0.417,-6.47,-14.221,-12.39
-0.352,-1.06,0.441,-7.812,-6.714,-14.099
-0.345,-1.031,0.447,-10.498,-0.549,-15.32
-0.301,-0.989,0.461,-13.855,4.211,-12.39
-0.255,-0.944,0.458,-16.296,7.141,-6.409
-0.217,-0.911,0.439,-17.09,7.874,0.305
-0.182,-0.887,0.43,-16.052,8.24,5.005
-0.141,-0.87,0.425,-13.672,8.118,6.348
-0.101,-0.848,0.426,-10.498,6.653,5.554
-0.064,-0.828,0.424,-8.484,4.272,4.639
-0.032,-0.818,0.422,-7.141,1.404,4.272
-0.032,-0.825,0.427,-5.615,-1.282,4.517
-0.061,-0.845,0.432,-3.296,-3.113,3.906
-0.087,-0.876,0.433,-1.648,-4.395,0.488
-0.092,-0.899,0.43,-1.343,-4.822,-3.967
-0.1,-0.907,0.427,-2.136,-4.761,-7.812
-0.123,-0.908,0.433,-3.54,-4.333,-9.888
-0.16,-0.913,0.44,-4.639,-4.089,-8.85
-0.198,-0.929,0.429,-3.967,-3.784,-5.249
-0.214,-0.953,0.419,-1.831,-1.953,-1.282
-0.21,-0.977,0.429,0.977,1.282,1.953
-0.194,-0.99,0.434,2.441,3.357,3.296
-0.181,-0.989,0.43,2.502,2.991,3.967
-0.171,-0.98,0.419,1.404,1.526,4.272
-0.16,-0.972,0.404,0.244,-0.061,5.249
-0.157,-0.965,0.394,-0.366,-1.16,6.104
-0.157,-0.959,0.383,0.0,-1.343,6.836
-0.152,-0.959,0.382,0.793,-0.366,6.836
-0.14,-0.967,0.398,1.587,1.038,6.836
-0.12,-0.982,0.417,1.038,1.16,6.958
-0.107,-0.994,0.422,-0.732,-0.549,6.348
-0.106,-0.986,0.424,-3.54,-2.869,5.676
-0.108,-0.975,0.429,-6.104,-4.333,5.554
-0.118,-0.965,0.441,-7.69,-4.639,5.432
-0.126,-0.954,0.448,-8.85,-4.578,4.211
-0.125,-0.942,0.454,-10.193,-3.784,3.296
-0.121,-0.933,0.468,-11.292,-2.441,2.625
-0.123,-0.924,0.481,-12.39,-0.977,2.441
-0.125,-0.915,0.492,-14.099,-0.061,2.808
-0.123,-0.901,0.493,-14.954,0.183,3.296
-0.119,-0.877,0.485,-15.381,0.671,3.601
-0.118,-0.854,0.481,-14.038,1.465,4.272
-0.108,-0.841,0.483,-11.902,2.136,4.761
-0.098,-0.834,0.485,-9.155,2.258,4.761
-0.091,-0.822,0.482,-6.531,1.221,4.639
-0.092,-0.814,0.474,-3.052,-0.122,4.7
-0.089,-0.825,0.468,1.16,-1.038,5.493
-0.089,-0.845,0.47,5.066,-0.916,6.653
-0.101,-0.866,0.474,7.751,-1.038,7.751
-0.13,-0.896,0.464,8.728,-1.038,8.423
-0.154,-0.934,0.447,7.935,-0.061,7.324
-0.151,-0.962,0.43,5.92,2.991,3.967
-0.134,-0.952,0.419,4.211,7.446,-0.427
-0.11,-0.923,0.426,3.784,12.634,-3.54
-0.078,-0.918,0.44,3.967,16.052,-4.822
-0.049,-0.922,0.449,4.15,16.113,-4.211
-0.032,-0.927,0.444,4.7,13.062,-3.296
-0.024,-0.94,0.433,5.432,9.033,-1.709
-0.026,-0.956,0.418,5.615,4.761,-0.244
-0.037,-0.974,0.411,4.639,1.343,0.671
-0.049,-0.988,0.41,2.869,-1.221,0.122
-0.064,-0.993,0.416,0.793,-2.869,-0.732
-0.079,-0.989,0.429,-2.563,-3.845,-2.197
-0.089,-0.97,0.438,-5.615,-4.7,-3.174
-0.098,-0.947,0.443,-7.568,-5.676,-3.479
-0.115,-0.922,0.444,-8.545,-5.92,-2.991
-0.133,-0.903,0.441,-8.545,-5.432,-2.869
-0.145,-0.89,0.428,-7.935,-3.54,-2.38
-0.139,-0.884,0.432,-6.836,-0.183,-1.709
-0.126,-0.888,0.44,-5.798,3.235,-1.77
-0.117,-0.888,0.443,-4.578,4.883,-2.502
-0.119,-0.891,0.439,-3.723,4.517,-2.93
0.97,2.035,0.104,-1.648,11.597,-73.242
1.046,2.394,-0.006,12.39,5.859,-116.028
1.15,2.729,-0.127,31.86,3.54,-168.579
1.28,3.033,-0.228,60.425,2.441,-231.75
1.376,3.32,-0.287,95.398,1.648,-293.884
1.486,3.456,-0.361,130.249,-3.906,-347.9
1.433,3.387,-0.403,152.466,-16.235,-408.63
1.031,3.122,-0.351,164.124,-34.546,-486.511
0.43,2.81,-0.173,172.302,-65.918,-571.411
-0.2,2.479,-0.058,187.134,-122.192,-644.165
-0.711,2.108,0.19,221.924,-191.956,-681.03
-1.381,1.717,0.484,271.118,-274.048,-703.857
-2.458,0.979,0.506,321.045,-349.487,-714.111
-3.604,-0.509,-0.115,337.83,-406.677,-644.409
-4.0,-2.693,-1.346,284.424,-409.973,-518.372
-4.0,-4.0,-2.244,152.405,-305.42,-421.082
-4.0,-4.0,-2.467,36.987,-138.55,-350.22
-3.409,-4.0,-2.237,-30.151,40.588,-325.989
-2.136,-4.0,-1.54,-77.515,183.594,-362.915
-1.007,-2.938,-0.972,-117.065,243.225,-374.451
-0.271,-1.556,-0.503,-105.774,239.197,-315.125
-0.469,-0.588,0.486,-93.445,239.563,-205.444
-0.482,-0.583,0.942,-92.834,174.683,-89.844
-0.258,-0.979,1.0,-41.138,49.194,-12.207
-0.452,-0.979,0.604,34.424,-65.918,1.831
-0.521,-0.958,0.208,99.121,-136.963,-6.592
-0.519,-1.189,-0.018,133.301,-153.503,-11.963
-0.607,-1.409,-0.086,140.259,-135.681,-8.972
-0.661,-1.705,0.082,120.483,-95.276,-1.282
-0.607,-1.906,0.361,81.299,-53.711,-2.258
-0.573,-1.719,0.341,32.043,-31.86,-13.123
-0.432,-1.516,0.369,-18.921,-9.644,-23.132
-0.39,-1.267,0.266,-55.603,12.085,-35.278
-0.294,-1.032,0.258,-76.355,32.654,-44.678
-0.15,-0.821,0.319,-84.167,49.622,-49.072
-0.031,-0.699,0.341,-78.857,55.359,-42.48
0.027,-0.694,0.438,-64.514,54.26,-29.968
0.021,-0.714,0.482,-44.678,42.786,-17.578
0.006,-0.739,0.462,-24.292,25.024,-7.324
-0.002,-0.799,0.429,-7.019,8.545,1.282
-0.064,-0.872,0.389,6.226,-3.845,5.92
-0.142,-0.935,0.367,16.235,-10.62,6.653
-0.164,-0.995,0.371,20.386,-12.756,4.272
-0.155,-1.023,0.38,21.484,-13.306,0.549
-0.181,-1.029,0.391,21.545,-13.062,-2.075
-0.228,-1.042,0.398,18.982,-11.719,-2.869
-0.261,-1.057,0.4,14.038,-9.521,-3.296
-0.265,-1.058,0.402,8.484,-6.47,-3.601
-0.231,-1.038,0.411,2.991,-3.479,-3.174
-0.198,-1.007,0.422,-1.892,-1.221,-1.221
-0.188,-0.976,0.425,-6.531,0.0,2.38
-0.178,-0.95,0.42,-10.986,-0.183,4.333
-0.16,-0.917,0.403,-13.123,-1.099,4.089
-0.132,-0.876,0.392,-12.573,-2.136,3.357
-0.1,-0.839,0.389,-11.169,-2.319,3.296
-0.113,-0.825,0.393,-8.728,-2.38,4.822
-0.15,-0.836,0.393,-5.188,-1.282,4.761
-0.155,-0.87,0.389,-1.526,1.16,1.221
-0.129,-0.889,0.394,0.366,4.333,-4.089
-0.094,-0.881,0.404,0.488,7.08,-8.179
-0.073,-0.875,0.408,-0.916,8.179,-9.155
-0.071,-0.883,0.41,-3.357,7.019,-7.019
-0.089,-0.902,0.399,-5.005,4.089,-4.456
-0.112,-0.922,0.378,-4.089,0.916,-3.601
-0.128,-0.943,0.376,-1.038,-0.183,-4.089
-0.121,-0.954,0.388,-0.366,-1.038,-5.249
-0.114,-0.955,0.39,-1.953,-2.93,-5.493
-0.119,-0.945,0.379,-3.479,-5.31,-4.395
-0.13,-0.939,0.365,-4.822,-7.08,-2.563
-0.158,-0.937,0.349,-4.822,-7.568,-1.465
-0.172,-0.954,0.35,-3.784,-5.859,-1.099
-0.165,-0.972,0.375,-3.662,-3.601,-1.709
-0.166,-0.98,0.398,-4.517,-2.808,-2.075
-0.174,-0.992,0.396,-6.531,-3.723,-2.502
-0.173,-1.007,0.384,-9.888,-4.211,-2.991
-0.176,-1.008,0.377,-13.184,-3.723,-4.333
-0.169,-0.996,0.377,-14.954,-2.136,-6.042
-0.146,-0.985,0.389,-16.724,-0.244,-7.202
-0.125,-0.966,0.407,-18.25,0.732,-6.714
-0.114,-0.948,0.42,-18.555,0.0,-5.737
-0.112,-0.935,0.428,-18.616,-1.953,-3.723
-0.122,-0.918,0.419,-18.188,-3.906,-2.258
-0.14,-0.908,0.409,-15.137,-4.7,-1.526
-0.154,-0.903,0.416,-11.108,-3.906,-1.282
-0.154,-0.908,0.439,-8.24,-2.319,-0.366
-0.149,-0.915,0.457,-6.836,-2.014,0.183
-0.148,-0.92,0.458,-6.409,-2.991,0.977
-0.16,-0.919,0.444,-6.592,-3.967,1.465
-0.182,-0.92,0.424,-6.958,-3.662,1.648
-0.185,-0.917,0.418,-6.714,-1.221,1.099
-0.164,-0.92,0.435,-5.798,2.075,0.0
-0.134,-0.92,0.437,-5.493,2.869,-1.099
-0.13,-0.921,0.431,-5.615,2.258,-1.465
-0.127,-0.921,0.421,-5.981,1.099,-0.427
-0.127,-0.909,0.407,-6.836,-0.061,0.916
-0.14,-0.887,0.392,-5.737,-0.793,1.587
-0.157,-0.873,0.389,-3.357,-0.183,1.892
-0.148,-0.877,0.407,-1.282,1.587,2.197
-0.126,-0.88,0.42,0.122,2.136,2.747
-0.109,-0.884,0.421,1.892,0.854,3.601
-0.101,-0.903,0.414,2.075,-1.099,4.639
-0.104,-0.927,0.409,0.732,-2.502,3.784
-0.112,-0.94,0.408,-1.099,-3.052,1.282
-0.11,-0.935,0.413,-2.747,-2.808,-2.075
-0.112,-0.916,0.417,-4.395,-3.235,-4.089
-0.125,-0.9,0.423,-5.249,-2.869,-4.15
-0.141,-0.909,0.447,-5.859,-2.625,-3.052
-0.145,-0.925,0.453,-6.714,-3.418,-1.709
-0.148,-0.935,0.442,-6.47,-4.517,-1.16
-0.15,-0.925,0.433,-6.653,-4.395,-0.854
-0.156,-0.911,0.424,-6.104,-3.174,-0.427
-0.151,-0.906,0.424,-4.578,-0.671,-0.122
-0.122,-0.908,0.441,-3.418,1.587,-0.061
-0.102,-0.905,0.455,-2.686,1.587,-0.366
-0.094,-0.898,0.458,-1.953,-0.122,-0.671
-0.098,-0.893,0.452,-2.319,-2.93,-0.61
-0.115,-0.891,0.439,-2.502,-4.7,-0.366
-0.127,-0.902,0.429,-1.709,-5.371,-0.244
-0.123,-0.913,0.434,-1.221,-4.822,-0.427
0.89,2.687,-0.212,24.353,-6.897,-39.368
1.131,3.336,-0.458,49.194,-25.696,-82.703
1.528,3.704,-0.791,81.299,-34.729,-165.894
1.847,3.885,-1.026,81.909,-19.775,-267.09
1.898,3.876,-1.014,83.252,17.273,-361.572
1.787,3.776,-0.807,98.877,46.631,-441.284
1.216,3.578,-0.404,126.282,35.706,-520.874
0.435,3.42,-0.092,163.33,-34.363,-608.765
-0.38,3.369,0.006,224.792,-148.987,-705.505
-0.976,3.012,-0.012,334.656,-273.437,-771.301
-1.616,2.694,-0.03,457.886,-395.569,-787.292
-3.394,1.479,-0.074,527.71,-458.008,-753.967
-4.0,-1.494,-0.248,479.492,-459.29,-604.309
-4.0,-4.0,-2.01,259.46,-445.618,-356.323
-4.0,-4.0,-3.278,29.053,-262.268,-224.365
-4.0,-4.0,-2.122,-161.255,36.316,-265.381
-2.914,-4.0,-1.28,-326.904,225.342,-469.91
-1.612,-3.342,-1.061,-416.992,254.395,-644.531
-0.098,-0.706,-1.186,-343.018,213.379,-635.986
0.48,0.695,-0.358,-155.579,233.459,-476.501
-0.318,1.114,1.467,-122.559,313.354,-225.037
-0.027,-0.372,2.273,-65.247,198.792,7.629
0.27,-1.312,1.691,42.236,-42.419,104.248
-0.312,-1.416,0.746,131.226,-209.717,76.843
-0.651,-1.416,0.037,183.838,-275.513,35.278
-0.919,-1.534,-0.529,168.213,-243.835,8.179
-0.68,-1.552,-0.235,137.939,-152.71,-4.211
-0.335,-1.47,0.432,115.173,-74.219,-14.954
-0.257,-1.299,0.624,83.801,-43.945,-23.01
-0.182,-1.094,0.708,39.185,-38.025,-20.691
-0.151,-1.069,0.667,5.371,-38.269,-10.437
-0.235,-1.031,0.679,-9.216,-39.49,-9.216
-0.221,-0.895,0.52,-13.245,-43.762,-14.282
-0.197,-0.867,0.401,-17.944,-39.673,-14.343
-0.256,-0.9,0.372,-13.55,-23.437,-10.742
-0.274,-0.944,0.422,-2.625,-5.737,-8.545
-0.219,-0.938,0.502,5.798,6.897,-8.179
-0.108,-0.923,0.572,8.24,11.23,-5.005
-0.062,-0.901,0.594,10.803,5.554,-0.854
-0.089,-0.875,0.575,17.7,-5.432,3.723
-0.134,-0.885,0.559,24.78,-15.442,9.888
-0.184,-0.952,0.51,27.466,-23.743,15.686
-0.253,-1.034,0.476,24.78,-26.306,16.357
-0.313,-1.078,0.46,19.775,-23.254,9.338
-0.327,-1.07,0.457,13.123,-16.663,-1.16
-0.315,-1.022,0.46,5.249,-7.996,-9.277
-0.301,-0.969,0.481,-2.197,0.916,-12.207
-0.275,-0.933,0.508,-6.653,7.751,-10.315
-0.239,-0.915,0.515,-7.812,10.742,-6.653
-0.203,-0.89,0.501,-7.446,10.925,-3.479
-0.165,-0.869,0.498,-6.409,10.071,-0.366
-0.143,-0.857,0.499,-4.15,8.606,3.479
-0.134,-0.857,0.485,-1.343,6.348,6.165
-0.124,-0.857,0.474,0.244,4.7,7.202
-0.107,-0.845,0.464,0.549,3.906,7.385
-0.089,-0.837,0.455,1.465,3.723,6.897
-0.089,-0.837,0.464,2.197,4.089,5.798
-0.104,-0.851,0.463,2.747,4.333,2.563
-0.104,-0.868,0.442,3.357,4.761,-2.441
-0.088,-0.868,0.438,2.075,6.47,-6.348
-0.07,-0.861,0.442,1.16,8.423,-7.812
-0.06,-0.869,0.454,0.854,8.728,-7.385
-0.07,-0.884,0.467,-0.122,7.08,-6.287
-0.086,-0.895,0.453,-0.488,2.869,-5.981
-0.1,-0.902,0.432,0.793,-0.793,-5.981
-0.109,-0.906,0.437,2.502,-1.892,-5.493
-0.111,-0.909,0.449,3.784,-2.93,-4.15
-0.117,-0.923,0.457,4.578,-4.761,-1.221
-0.136,-0.944,0.45,4.578,-7.141,2.502
-0.166,-0.967,0.419,4.272,-8.728,5.249
-0.195,-0.997,0.391,5.615,-6.897,5.432
-0.187,-1.017,0.403,6.165,-1.16,2.93
-0.147,-1.01,0.429,3.967,4.211,-0.671
-0.122,-0.985,0.447,0.427,5.92,-3.296
-0.111,-0.961,0.447,-3.845,4.761,-3.479
-0.107,-0.946,0.431,-6.531,1.831,-1.465
-0.112,-0.935,0.416,-6.897,-0.122,0.793
-0.112,-0.93,0.418,-5.676,-0.671,2.38
-0.104,-0.927,0.432,-4.944,-0.916,3.723
-0.092,-0.928,0.444,-5.249,-1.648,5.066
-0.08,-0.926,0.444,-6.348,-3.479,5.981
-0.078,-0.918,0.439,-7.568,-4.822,6.714
-0.096,-0.906,0.433,-8.362,-5.615,7.019
-0.11,-0.901,0.428,-8.057,-5.127,6.775
-0.109,-0.899,0.431,-7.446,-3.052,5.31
-0.098,-0.902,0.454,-7.446,0.366,2.502
-0.079,-0.901,0.476,-8.24,2.136,-0.549
-0.075,-0.895,0.479,-9.827,1.282,-3.235
-0.082,-0.889,0.469,-12.146,-0.122,-5.066
-0.097,-0.881,0.462,-14.099,-0.61,-5.737
-0.107,-0.864,0.455,-14.404,-0.244,-6.348
-0.109,-0.844,0.449,-12.634,1.038,-7.019
-0.094,-0.825,0.463,-9.644,2.747,-6.775
-0.069,-0.819,0.479,-5.92,2.625,-5.127
-0.057,-0.817,0.48,-2.441,0.244,-2.808
-0.065,-0.83,0.466,1.16,-2.991,-0.244
-0.086,-0.861,0.455,3.967,-5.188,1.892
-0.101,-0.902,0.448,5.859,-6.897,2.441
-0.117,-0.936,0.443,5.981,-7.446,1.526
-0.136,-0.96,0.442,3.967,-7.263,-0.61
-0.147,-0.97,0.434,0.61,-6.287,-2.991
-0.146,-0.966,0.433,-2.38,-4.639,-5.188
-0.132,-0.945,0.437,-5.127,-2.625,-6.775
-0.117,-0.916,0.451,-7.08,-0.671,-7.629
-0.104,-0.887,0.465,-7.812,-0.061,-6.531
-0.089,-0.869,0.467,-7.263,-1.343,-4.028
-0.083,-0.861,0.464,-5.737,-3.174,-0.732
-0.08,-0.863,0.462,-3.784,-4.7,2.136
-0.078,-0.873,0.463,-2.136,-6.104,3.418
-0.08,-0.887,0.47,-0.977,-6.958,3.479
-0.09,-0.899,0.478,-1.038,-7.874,2.258
-0.106,-0.91,0.477,-2.136,-8.362,-0.183
-0.118,-0.916,0.473,-2.747,-7.996,-2.93
-0.116,-0.918,0.472,-3.479,-6.47,-5.005
-0.121,-0.907,0.488,-5.676,-4.333,-6.714
-0.132,-0.887,0.499,-6.714,-2.869,-7.446
-0.14,-0.87,0.488,-5.676,-1.892,-6.653
-0.136,-0.867,0.489,-4.089,0.122,-5.31
-0.115,-0.873,0.5,-2.319,2.014,-4.211
0.974,2.027,-0.082,105.53,9.277,-24.475
1.091,2.317,-0.273,166.077,7.629,-43.457
1.235,2.576,-0.436,203.735,10.559,-81.909
1.38,2.643,-0.583,204.834,19.409,-127.625
1.413,2.519,-0.656,179.199,31.555,-175.476
1.355,2.457,-0.635,155.029,38.818,-240.112
1.223,2.536,-0.55,151.733,30.029,-328.491
1.113,2.678,-0.435,154.541,2.136,-427.551
0.948,2.728,-0.266,148.254,-38.513,-516.357
0.702,2.677,-0.038,133.179,-93.14,-588.562
0.234,2.582,0.433,130.005,-172.791,-650.574
-0.481,2.834,0.35,184.448,-273.621,-729.98
-1.36,2.723,0.175,275.635,-333.801,-765.076
-2.467,2.068,0.352,309.021,-359.314,-728.516
-3.363,0.461,-0.108,331.543,-372.314,-609.924
-4.0,-2.314,-0.854,335.327,-347.351,-453.735
-4.0,-4.0,-1.489,254.211,-270.996,-312.378
-4.0,-4.0,-2.068,103.516,-152.344,-223.145
-3.92,-4.0,-2.351,-37.964,-9.46,-226.685
-2.49,-4.0,-1.807,-151.001,146.667,-347.046
-1.38,-3.368,-1.105,-199.89,238.464,-445.923
-0.41,-1.448,-0.844,-153.32,244.751,-420.837
-0.096,-0.234,0.073,-53.955,258.24,-277.649
-0.21,-0.174,1.35,-27.527,261.108,-92.651
0.094,-0.998,1.58,-2.686,130.371,48.157
-0.047,-1.46,1.158,46.814,-33.142,105.896
-0.096,-1.493,0.792,100.708,-154.541,81.848
-0.253,-1.337,0.108,136.047,-225.647,34.729
-0.453,-1.035,-0.423,145.02,-222.656,5.981
-0.309,-1.143,-0.121,134.216,-148.682,11.78
-0.202,-1.351,0.317,108.215,-81.177,25.33
-0.231,-1.573,0.525,67.2,-47.058,26.917
-0.151,-1.435,0.702,23.437,-30.579,4.028
-0.038,-1.237,0.545,-17.944,-32.471,-15.808
-0.053,-1.069,0.365,-52.124,-25.757,-29.663
-0.08,-0.917,0.342,-69.763,-5.371,-38.391
-0.079,-0.824,0.379,-75.012,15.32,-46.021
-0.04,-0.742,0.389,-70.618,29.175,-49.072
-0.001,-0.725,0.414,-62.012,37.842,-43.335
-0.003,-0.764,0.436,-49.316,41.321,-31.921
-0.008,-0.805,0.476,-33.081,38.818,-21.912
0.004,-0.823,0.484,-17.883,29.48,-15.076
0.008,-0.859,0.471,-8.118,16.724,-8.24
-0.014,-0.922,0.481,-2.502,4.211,-2.747
-0.079,-0.973,0.459,0.61,-8.118,-2.014
-0.163,-0.997,0.421,0.366,-17.334,-5.981
-0.227,-1.008,0.406,-2.38,-20.386,-11.963
-0.251,-1.005,0.414,-3.845,-18.86,-17.395
-0.25,-0.991,0.416,-4.089,-15.93,-20.142
-0.246,-0.969,0.426,-5.066,-11.658,-18.799
-0.242,-0.941,0.443,-6.104,-7.324,-13.245
-0.217,-0.922,0.444,-6.104,-4.333,-4.639
-0.183,-0.917,0.435,-5.432,-2.563,4.517
-0.163,-0.907,0.423,-4.761,-0.427,11.047
-0.142,-0.899,0.408,-4.15,1.648,13.489
-0.113,-0.894,0.412,-4.639,4.333,13.123
-0.085,-0.884,0.433,-6.531,6.775,10.742
-0.062,-0.871,0.438,-8.911,7.202,6.775
-0.043,-0.855,0.435,-10.803,6.958,1.831
-0.04,-0.836,0.429,-11.414,6.409,-2.808
-0.044,-0.821,0.425,-10.071,6.226,-6.653
-0.04,-0.813,0.433,-7.874,6.592,-10.01
-0.027,-0.813,0.439,-4.7,5.554,-11.78
-0.023,-0.82,0.441,-0.549,2.93,-11.414
-0.043,-0.833,0.443,3.296,-0.488,-8.789
-0.082,-0.86,0.428,7.935,-4.211,-4.639
-0.109,-0.921,0.404,14.16,-6.531,-0.061
-0.119,-0.993,0.397,17.761,-6.836,2.747
-0.127,-1.038,0.401,15.93,-6.409,2.93
-0.138,-1.054,0.393,11.353,-6.653,0.977
-0.135,-1.056,0.375,5.92,-7.385,-0.793
-0.127,-1.049,0.362,0.305,-7.385,-1.465
-0.127,-1.026,0.349,-4.883,-6.592,-2.014
-0.133,-1.002,0.335,-7.568,-5.127,-3.357
-0.122,-0.989,0.343,-8.179,-1.892,-4.333
-0.095,-0.979,0.374,-8.362,1.892,-5.127
-0.067,-0.966,0.404,-8.667,3.113,-5.371
-0.055,-0.951,0.42,-9.521,1.77,-4.944
-0.05,-0.945,0.425,-10.864,-0.854,-3.723
-0.055,-0.944,0.434,-12.268,-3.113,-2.197
-0.073,-0.941,0.448,-13.245,-4.883,-0.671
-0.095,-0.938,0.452,-13.794,-6.653,-1.038
-0.108,-0.94,0.455,-14.404,-6.836,-3.235
-0.108,-0.935,0.467,-16.113,-5.859,-5.188
-0.115,-0.931,0.487,-17.456,-4.456,-6.042
-0.119,-0.918,0.495,-18.372,-3.296,-5.615
-0.118,-0.901,0.494,-19.409,-2.319,-4.089
-0.137,-0.883,0.476,-18.982,-1.404,-2.686
-0.147,-0.874,0.46,-16.357,0.854,-1.282
-0.132,-0.876,0.454,-13.367,4.639,-0.061
-0.105,-0.88,0.469,-10.437,8.24,0.732
-0.077,-0.879,0.479,-6.958,8.789,0.732
-0.057,-0.872,0.478,-3.967,6.714,0.61
-0.054,-0.867,0.468,-1.77,3.479,1.038
-0.062,-0.875,0.458,0.183,0.854,1.648
-0.08,-0.891,0.458,1.648,-1.099,1.892
-0.101,-0.911,0.45,2.808,-2.075,0.671
-0.108,-0.935,0.438,3.174,-2.136,-1.099
-0.106,-0.948,0.434,1.648,-0.793,-2.747
-0.103,-0.944,0.436,-1.038,1.16,-3.906
-0.098,-0.932,0.436,-2.93,2.686,-3.845
-0.093,-0.915,0.433,-3.662,3.723,-2.747
-0.084,-0.907,0.436,-3.54,4.822,-2.136
-0.066,-0.906,0.446,-3.052,4.944,-1.526
-0.043,-0.904,0.453,-2.869,3.662,-0.793
-0.033,-0.904,0.455,-2.625,1.404,-0.061
-0.033,-0.909,0.454,-3.052,-1.221,0.854
-0.048,-0.914,0.45,-3.967,-3.601,1.16
-0.073,-0.918,0.447,-4.822,-4.761,-0.305
-0.094,-0.92,0.453,-5.615,-4.456,-2.258
-0.097,-0.916,0.468,-7.019,-2.869,-4.7
-0.095,-0.902,0.481,-8.057,-1.16,-6.348
-0.099,-0.887,0.485,-8.484,-0.122,-6.226
-0.097,-0.886,0.482,-8.728,0.854,-4.578
-0.09,-0.889,0.473,-8.423,1.892,-3.418
-0.083,-0.887,0.469,-6.897,2.747,-3.052
-0.072,-0.879,0.473,-4.944,3.967,-3.113
-0.061,-0.878,0.481,-3.052,3.906,-2.991
-0.054,-0.877,0.485,-1.892,2.441,-2.136
0.8,2.0,0.048,35.217,-0.427,-55.603
0.985,2.466,-0.196,86.792,-6.897,-87.83
1.216,2.979,-0.407,134.094,-9.46,-128.235
1.475,3.341,-0.613,165.466,-5.005,-177.002
1.764,3.482,-0.8,171.875,8.118,-228.394
1.837,3.416,-0.842,158.997,26.428,-300.659
1.655,3.204,-0.726,153.198,29.175,-407.288
1.279,3.093,-0.529,156.799,-0.061,-533.508
0.908,3.063,-0.311,163.33,-62.805,-645.325
0.637,2.97,-0.137,166.016,-156.311,-715.21
0.055,2.965,0.246,171.814,-274.719,-750.793
-0.947,3.151,0.108,250.427,-404.724,-797.546
-1.842,2.728,-0.295,366.516,-489.075,-798.34
-3.07,1.548,-0.49,370.972,-517.883,-686.523
-4.0,-1.007,-1.188,321.045,-486.511,-504.395
-4.0,-3.983,-2.164,244.751,-386.475,-315.857
-4.0,-4.0,-2.421,116.699,-213.745,-229.797
-4.0,-4.0,-1.873,-11.963,-12.756,-289.856
-3.153,-4.0,-1.445,-149.475,154.175,-461.426
-1.806,-2.993,-1.171,-225.037,218.323,-542.603
-0.646,-1.073,-0.944,-185.913,215.088,-475.647
-0.462,0.132,0.042,-88.623,233.154,-315.002
-0.835,0.193,1.294,-49.377,224.792,-111.633
-0.543,-0.736,1.262,9.644,78.064,39.429
-0.415,-1.451,1.002,91.37,-74.097,97.839
-0.754,-1.509,0.452,166.565,-183.105,80.627
-0.871,-1.376,-0.122,195.374,-228.455,54.382
-0.624,-1.524,-0.047,178.589,-197.51,49.988
-0.595,-1.736,0.185,144.592,-145.142,52.429
-0.652,-1.77,0.393,98.206,-102.661,46.387
-0.743,-1.657,0.281,44.25,-69.519,24.231
-0.641,-1.422,0.208,-3.235,-23.743,-5.798
-0.416,-1.162,0.313,-36.194,27.893,-32.104
-0.165,-0.975,0.427,-54.077,63.965,-52.185
0.014,-0.762,0.436,-61.829,76.721,-63.66
0.1,-0.623,0.391,-60.547,77.148,-60.12
0.166,-0.749,0.544,-50.964,74.341,-45.471
0.111,-0.741,0.68,-35.767,55.542,-35.4
0.111,-0.7,0.553,-24.658,19.592,-21.851
0.025,-0.801,0.497,-20.203,-6.409,-3.235
-0.166,-0.924,0.394,-11.169,-20.447,8.667
-0.29,-1.021,0.372,-0.671,-25.024,6.409
-0.328,-1.016,0.424,5.981,-21.667,-3.601
-0.307,-1.001,0.485,5.127,-18.005,-9.888
-0.362,-0.999,0.473,1.282,-16.052,-10.315
-0.449,-1.012,0.431,-1.587,-12.268,-7.629
-0.486,-1.031,0.411,-5.737,-3.296,-6.104
-0.445,-1.034,0.434,-10.315,8.057,-6.409
-0.373,-1.017,0.465,-12.146,17.517,-7.751
-0.317,-0.961,0.476,-13.306,21.423,-7.751
-0.271,-0.908,0.47,-15.564,21.729,-4.272
-0.225,-0.89,0.455,-16.785,20.447,0.854
-0.184,-0.871,0.442,-15.93,17.944,6.042
-0.146,-0.854,0.429,-13.184,14.526,9.094
-0.11,-0.84,0.427,-10.986,10.62,11.475
-0.103,-0.83,0.416,-9.949,6.592,13.428
-0.125,-0.837,0.389,-7.507,2.808,13.855
-0.148,-0.864,0.384,-3.418,2.686,10.864
-0.13,-0.878,0.417,-1.099,4.822,5.127
-0.116,-0.873,0.447,0.0,5.005,-0.916
-0.125,-0.877,0.466,-0.671,2.441,-4.272
-0.154,-0.887,0.456,-2.93,-1.648,-4.7
-0.201,-0.9,0.423,-3.052,-4.089,-4.395
-0.238,-0.916,0.406,-0.427,-2.258,-4.211
-0.236,-0.929,0.412,1.465,3.052,-3.54
-0.218,-0.934,0.43,2.441,7.874,-2.869
-0.198,-0.93,0.439,1.648,10.132,-2.075
-0.183,-0.928,0.439,0.0,10.437,-0.549
-0.177,-0.925,0.431,-1.282,9.521,1.221
-0.174,-0.921,0.424,-2.075,7.69,2.869
-0.17,-0.911,0.414,-1.038,5.31,3.784
-0.161,-0.909,0.407,0.732,3.296,4.578
-0.153,-0.916,0.411,1.099,1.221,6.042
-0.144,-0.929,0.412,0.183,-1.587,7.629
-0.142,-0.939,0.406,-1.16,-4.822,8.057
-0.154,-0.941,0.405,-1.831,-6.958,7.08
-0.168,-0.948,0.406,-1.648,-7.385,5.249
-0.171,-0.96,0.416,-3.296,-6.165,2.747
-0.168,-0.955,0.431,-6.897,-4.456,-0.427
-0.168,-0.929,0.437,-9.399,-3.235,-2.991
-0.169,-0.908,0.445,-10.132,-1.77,-4.395
-0.165,-0.906,0.464,-10.742,-0.061,-4.517
-0.159,-0.906,0.482,-11.536,0.183,-4.028
-0.16,-0.894,0.486,-11.353,-0.854,-3.601
-0.163,-0.875,0.486,-10.681,-1.77,-2.563
-0.164,-0.861,0.49,-9.583,-1.953,-0.854
-0.162,-0.855,0.499,-7.874,-1.953,1.038
-0.153,-0.855,0.503,-6.042,-2.686,2.808
-0.15,-0.862,0.498,-3.601,-3.784,3.784
-0.161,-0.877,0.493,-1.953,-4.272,4.456
-0.175,-0.891,0.483,-1.404,-4.333,4.456
-0.182,-0.901,0.463,-1.221,-3.601,3.54
-0.192,-0.904,0.452,-0.183,-0.793,2.075
-0.197,-0.904,0.461,0.366,3.662,0.183
-0.187,-0.903,0.475,-0.183,7.446,-1.404
-0.172,-0.891,0.477,-0.671,9.155,-2.136
-0.159,-0.879,0.467,-0.305,8.728,-1.587
-0.153,-0.882,0.459,-0.122,7.874,0.366
-0.15,-0.898,0.448,-0.427,6.348,2.136
-0.146,-0.914,0.439,-0.366,4.578,3.235
-0.138,-0.913,0.427,-0.061,2.747,3.052
-0.138,-0.902,0.426,0.549,2.075,2.686
-0.145,-0.9,0.446,1.404,2.075,3.235
-0.137,-0.903,0.464,1.404,1.343,4.7
-0.127,-0.902,0.466,0.916,-0.366,6.531
-0.134,-0.901,0.463,0.366,-2.075,8.118
-0.15,-0.911,0.448,-0.793,-3.113,7.507
-0.152,-0.926,0.434,-3.113,-2.502,4.456
-0.15,-0.923,0.428,-5.249,-0.061,0.0
-0.141,-0.915,0.43,-6.775,2.625,-4.028
-0.124,-0.911,0.445,-8.606,5.005,-6.592
-0.114,-0.9,0.469,-10.62,5.493,-7.507
-0.133,-0.878,0.471,-11.78,3.174,-7.263
-0.164,-0.873,0.456,-11.292,-0.244,-5.798
-0.181,-0.885,0.446,-9.827,-2.563,-3.723
-0.182,-0.897,0.441,-7.812,-3.113,-2.075
-0.18,-0.899,0.439,-5.188,-3.052,-0.61
-0.18,-0.907,0.434,-3.418,-2.625,1.648
-0.182,-0.925,0.448,-3.174,-1.648,4.578
0.958,1.964,-0.448,-31.067,0.732,-45.776
1.158,2.119,-0.689,-18.005,7.874,-94.238
1.403,2.338,-0.851,-1.587,24.109,-156.189
1.633,2.606,-0.92,25.574,47.852,-220.581
1.856,2.841,-0.853,57.495,71.96,-278.503
1.938,2.977,-0.668,82.947,81.055,-337.646
1.68,2.96,-0.411,104.309,54.871,-406.189
1.248,2.855,-0.209,127.93,-11.658,-484.375
0.757,2.74,-0.08,151.428,-103.882,-569.458
0.249,2.674,0.084,175.659,-205.811,-637.451
-0.027,2.202,0.133,211.67,-316.895,-663.269
-0.178,1.962,-0.069,242.615,-435.303,-691.711
-1.12,2.018,-0.544,280.212,-516.602,-725.83
-2.814,1.605,-0.442,337.83,-514.832,-735.901
-3.84,0.43,-0.418,319.763,-495.972,-646.24
-4.0,-1.508,-1.143,258.606,-452.576,-479.858
-4.0,-3.565,-1.862,201.538,-341.858,-325.134
-4.0,-4.0,-1.945,142.395,-193.237,-218.262
-4.0,-4.0,-1.68,70.007,-37.537,-191.284
-3.057,-4.0,-1.314,-8.545,82.703,-265.503
-1.81,-3.553,-0.888,-58.167,140.93,-332.214
-0.958,-2.141,-0.735,-56.335,141.846,-324.036
-0.754,-0.986,-0.226,-27.893,147.4,-242.737
-0.847,-0.529,0.608,-33.325,155.09,-111.694
-0.399,-0.818,0.808,-17.212,80.017,-3.235
-0.087,-1.035,0.623,41.016,-21.973,52.002
-0.193,-0.947,0.268,103.455,-97.9,64.026
-0.166,-0.998,0.215,136.597,-132.812,67.627
-0.191,-1.221,0.071,142.09,-145.691,68.909
-0.384,-1.318,-0.005,128.418,-136.047,64.026
-0.306,-1.482,0.322,95.093,-101.807,54.077
-0.264,-1.501,0.414,52.979,-81.543,30.457
-0.311,-1.3,0.274,12.085,-68.176,3.479
-0.326,-1.09,0.168,-24.597,-40.588,-15.503
-0.248,-0.998,0.229,-49.805,-2.869,-25.635
-0.174,-0.927,0.275,-60.974,27.649,-33.752
-0.139,-0.835,0.275,-63.354,48.218,-40.466
-0.099,-0.781,0.359,-61.523,63.416,-40.771
-0.034,-0.852,0.455,-54.138,67.627,-36.194
-0.019,-0.838,0.497,-43.335,57.312,-34.79
0.009,-0.801,0.415,-34.424,37.292,-28.625
-0.035,-0.898,0.422,-29.236,21.973,-18.372
-0.135,-0.999,0.381,-21.301,8.728,-14.709
-0.219,-0.967,0.35,-15.32,-1.038,-18.005
-0.215,-0.956,0.376,-12.573,-4.028,-19.348
-0.219,-1.001,0.426,-10.925,-5.676,-18.127
-0.279,-1.002,0.411,-9.521,-10.254,-16.724
-0.336,-0.99,0.355,-11.414,-12.512,-13.062
-0.357,-1.031,0.357,-14.954,-8.057,-7.568
-0.346,-1.075,0.368,-15.442,-1.465,-4.883
-0.31,-1.05,0.385,-14.648,4.456,-4.517
-0.272,-1.007,0.408,-16.357,9.583,-4.333
-0.243,-0.964,0.404,-18.372,12.39,-3.113
-0.198,-0.935,0.413,-19.836,14.771,-0.854
-0.158,-0.917,0.425,-19.897,15.869,0.916
-0.14,-0.877,0.414,-17.151,15.381,1.404
-0.119,-0.863,0.414,-13.55,14.954,1.465
-0.076,-0.891,0.44,-11.169,14.648,1.465
-0.044,-0.904,0.454,-9.583,11.353,-0.244
-0.044,-0.892,0.435,-9.216,5.737,-3.052
-0.062,-0.881,0.413,-10.254,0.916,-4.456
-0.078,-0.88,0.404,-11.23,-1.831,-3.906
-0.1,-0.882,0.399,-10.437,-3.662,-3.479
-0.132,-0.882,0.4,-7.69,-3.723,-3.296
-0.15,-0.885,0.412,-4.272,-2.991,-2.93
-0.157,-0.889,0.424,-0.793,-2.93,-2.869
-0.153,-0.897,0.437,1.587,-3.418,-2.869
-0.138,-0.907,0.438,2.808,-4.456,-2.808
-0.143,-0.917,0.435,3.54,-6.287,-2.075
-0.172,-0.929,0.425,3.113,-7.874,-1.099
-0.204,-0.943,0.397,2.686,-8.667,-1.465
-0.216,-0.969,0.369,2.808,-6.714,-3.113
-0.201,-0.989,0.377,1.526,-2.258,-4.761
-0.184,-0.986,0.409,-1.038,1.953,-6.104
-0.167,-0.964,0.429,-3.723,2.686,-6.409
-0.162,-0.942,0.428,-6.775,0.549,-5.066
-0.165,-0.934,0.417,-8.972,-2.563,-2.563
-0.175,-0.936,0.408,-10.01,-4.578,-0.916
-0.19,-0.937,0.401,-9.46,-5.066,-1.038
-0.187,-0.931,0.405,-8.423,-4.395,-1.709
-0.17,-0.922,0.421,-8.728,-3.235,-2.136
-0.153,-0.911,0.432,-9.949,-3.052,-2.014
-0.138,-0.899,0.438,-11.475,-4.028,-1.404
-0.144,-0.879,0.437,-12.573,-4.944,-0.549
-0.181,-0.865,0.424,-11.658,-5.31,-1.465
-0.201,-0.867,0.417,-8.789,-3.54,-3.601
-0.186,-0.873,0.436,-7.446,0.427,-5.92
-0.163,-0.866,0.463,-6.836,4.517,-7.263
-0.139,-0.857,0.481,-6.47,5.737,-6.775
-0.126,-0.852,0.5,-5.92,4.333,-5.066
-0.137,-0.854,0.504,-4.883,0.122,-3.54
-0.164,-0.875,0.47,-3.967,-5.493,-2.686
-0.189,-0.899,0.443,-4.15,-9.46,-2.991
-0.204,-0.899,0.426,-3.845,-10.01,-4.089
-0.199,-0.884,0.412,-2.136,-8.667,-4.456
-0.199,-0.879,0.412,0.183,-6.348,-3.418
-0.2,-0.895,0.428,2.258,-4.272,-1.587
-0.195,-0.919,0.44,3.113,-3.235,-0.61
-0.194,-0.929,0.439,3.54,-3.174,-0.916
-0.192,-0.931,0.434,3.113,-3.357,-1.587
-0.191,-0.924,0.429,1.709,-2.625,-1.709
-0.193,-0.916,0.426,0.854,-1.038,-1.953
-0.184,-0.916,0.429,0.793,0.671,-2.502
-0.165,-0.92,0.437,0.488,2.319,-3.235
-0.152,-0.921,0.444,0.305,2.625,-3.784
-0.143,-0.926,0.445,0.0,1.465,-3.418
-0.146,-0.937,0.442,-1.648,-0.244,-2.808
-0.161,-0.942,0.434,-3.967,-1.648,-2.686
-0.169,-0.943,0.428,-5.615,-2.441,-3.296
-0.178,-0.934,0.428,-7.202,-1.831,-4.395
-0.188,-0.921,0.431,-7.751,-0.732,-5.188
-0.191,-0.916,0.434,-7.202,0.488,-4.761
-0.18,-0.913,0.443,-6.47,2.319,-3.662
-0.17,-0.903,0.457,-5.432,3.479,-2.686
-0.163,-0.888,0.459,-3.662,3.113,-1.953
-0.164,-0.891,0.455,-1.282,1.77,-1.038
-0.167,-0.911,0.459,0.61,0.488,0.305
-0.168,-0.931,0.46,1.343,-0.854,0.549
-0.167,-0.947,0.457,1.221,-2.136,0.0
0.959,2.369,-0.199,43.396,18.677,-14.038
1.202,2.67,-0.518,72.388,13.0,-41.504
1.433,2.898,-0.785,84.839,16.541,-90.515
1.753,3.062,-1.028,110.229,31.311,-148.621
2.052,3.126,-1.147,129.272,54.504,-217.468
2.057,3.049,-1.051,129.578,77.576,-300.903
1.73,2.924,-0.785,128.54,78.308,-383.972
1.242,2.749,-0.475,134.521,40.466,-456.055
0.749,2.489,-0.235,135.01,-29.236,-524.414
0.378,2.121,0.027,130.31,-117.554,-588.501
-0.21,2.024,0.492,147.705,-218.872,-648.315
-0.987,2.037,0.24,227.356,-319.641,-727.417
-1.68,1.721,0.028,284.485,-353.638,-788.757
-2.379,1.131,0.126,242.432,-367.249,-771.79
-3.091,-0.144,0.155,217.529,-363.159,-671.692
-3.604,-1.923,-0.252,194.397,-329.041,-547.791
-3.954,-3.672,-1.028,122.559,-278.442,-440.796
-4.0,-4.0,-1.249,19.897,-164.246,-364.868
-3.762,-4.0,-1.161,-64.148,-33.997,-331.726
-2.839,-3.438,-1.049,-110.596,68.237,-337.585
-1.926,-2.147,-0.762,-106.934,130.432,-334.9
-1.218,-1.093,-0.251,-55.237,152.161,-288.147
-0.817,-0.495,0.421,2.38,148.01,-208.496
-0.62,-0.476,0.963,40.161,100.464,-110.352
-0.582,-0.838,0.978,84.106,-3.479,-20.935
-0.667,-1.225,0.552,144.409,-119.934,30.09
-0.794,-1.506,0.062,194.153,-194.763,42.847
-0.814,-1.706,-0.205,208.374,-209.9,42.175
-0.831,-1.863,-0.326,185.974,-181.091,40.955
-0.712,-1.962,-0.119,143.066,-127.808,40.222
-0.586,-1.973,0.126,92.285,-77.881,29.541
-0.512,-1.743,0.138,40.405,-44.983,5.432
-0.37,-1.425,0.136,-8.057,-16.235,-16.479
-0.168,-1.169,0.224,-46.021,10.742,-30.64
0.003,-1.023,0.338,-68.97,25.33,-36.987
0.062,-0.828,0.339,-78.918,22.156,-40.222
0.085,-0.662,0.285,-76.538,13.489,-35.95
0.09,-0.65,0.317,-65.43,8.85,-23.804
0.059,-0.731,0.369,-49.561,4.15,-11.23
0.012,-0.794,0.41,-31.555,-2.563,-5.31
0.013,-0.85,0.498,-15.137,-9.644,-2.991
-0.053,-0.878,0.464,-3.906,-19.958,-1.953
-0.115,-0.912,0.479,0.854,-24.963,0.916
-0.163,-0.992,0.507,1.282,-26.123,4.578
-0.23,-1.086,0.49,-0.61,-26.611,5.92
-0.299,-1.163,0.477,-6.714,-23.987,3.052
-0.345,-1.21,0.448,-16.968,-18.433,-5.188
-0.355,-1.204,0.413,-28.687,-10.925,-15.747
-0.337,-1.154,0.42,-39.368,-1.343,-24.536
-0.304,-1.09,0.458,-46.326,7.324,-28.992
-0.275,-1.003,0.46,-50.415,11.353,-29.358
-0.266,-0.909,0.438,-50.415,13.245,-25.33
-0.262,-0.85,0.421,-44.922,15.259,-18.982
-0.224,-0.833,0.427,-35.95,18.188,-12.756
-0.16,-0.828,0.453,-26.367,18.799,-7.629
-0.108,-0.825,0.466,-16.663,15.686,-3.357
-0.085,-0.828,0.445,-9.338,9.338,1.221
-0.09,-0.851,0.419,-3.906,3.845,5.92
-0.091,-0.889,0.414,0.793,2.136,8.362
-0.076,-0.926,0.429,3.662,2.197,8.179
-0.068,-0.943,0.44,4.211,1.16,5.92
-0.073,-0.942,0.439,2.563,-1.099,2.686
-0.08,-0.946,0.428,-0.793,-3.174,-0.427
-0.102,-0.945,0.414,-5.676,-4.211,-2.686
-0.134,-0.936,0.401,-9.033,-3.845,-5.005
-0.142,-0.926,0.399,-10.437,-1.892,-7.385
-0.141,-0.922,0.425,-10.376,0.305,-8.423
-0.152,-0.919,0.451,-9.644,0.854,-7.385
-0.169,-0.917,0.441,-9.033,-0.854,-5.432
-0.183,-0.919,0.418,-7.69,-2.686,-2.441
-0.194,-0.922,0.405,-6.165,-2.563,0.61
-0.2,-0.929,0.404,-4.272,-1.404,2.441
-0.201,-0.941,0.401,-2.197,-0.549,2.563
-0.196,-0.955,0.401,-1.16,0.0,1.221
-0.184,-0.965,0.399,-0.244,0.366,-0.793
-0.172,-0.976,0.403,0.549,1.099,-2.014
-0.157,-0.985,0.418,-0.122,1.892,-1.953
-0.143,-0.988,0.43,-2.869,1.953,-1.221
-0.144,-0.976,0.432,-6.592,0.549,-0.732
-0.158,-0.951,0.421,-9.888,-0.793,-1.038
-0.163,-0.931,0.409,-11.353,-0.244,-1.465
-0.154,-0.919,0.417,-11.597,2.014,-1.953
-0.135,-0.904,0.438,-11.841,4.517,-1.953
-0.12,-0.884,0.452,-12.024,5.432,-1.831
-0.116,-0.862,0.458,-11.475,4.333,-1.16
-0.118,-0.852,0.454,-10.315,2.563,-0.61
-0.114,-0.86,0.451,-8.423,1.038,-0.183
-0.109,-0.875,0.454,-6.775,-0.061,-0.061
-0.113,-0.89,0.462,-5.737,-1.221,0.061
-0.12,-0.9,0.467,-6.042,-2.625,0.122
-0.129,-0.896,0.457,-6.287,-4.272,0.366
-0.149,-0.89,0.447,-5.554,-4.639,0.732
-0.16,-0.889,0.444,-5.432,-3.784,0.61
-0.159,-0.882,0.452,-6.165,-2.014,0.427
-0.16,-0.867,0.445,-5.493,-0.671,-0.183
-0.161,-0.852,0.434,-3.296,0.427,-0.366
-0.16,-0.85,0.429,-0.916,2.258,0.488
-0.147,-0.862,0.433,1.648,3.967,1.038
-0.132,-0.879,0.435,3.967,4.456,0.549
-0.128,-0.893,0.429,5.615,3.906,-0.061
-0.119,-0.915,0.424,6.042,3.479,-0.671
-0.103,-0.932,0.423,4.395,3.174,-1.77
-0.092,-0.935,0.428,1.892,2.563,-2.625
-0.085,-0.922,0.432,-0.977,1.16,-3.479
-0.081,-0.901,0.432,-3.357,-0.61,-4.15
-0.084,-0.885,0.437,-4.822,-2.563,-4.272
-0.089,-0.879,0.44,-5.371,-4.272,-3.906
-0.099,-0.879,0.436,-4.822,-6.409,-3.174
-0.128,-0.881,0.432,-3.479,-7.629,-2.625
-0.152,-0.904,0.432,-1.648,-6.653,-2.502
-0.151,-0.935,0.443,-1.038,-4.089,-2.93
-0.149,-0.933,0.454,-1.831,-1.648,-4.15
-0.159,-0.919,0.455,-2.319,0.488,-5.188
-0.154,-0.922,0.456,-3.113,2.075,-5.676
-0.133,-0.928,0.459,-4.15,3.052,-5.981
-0.123,-0.922,0.457,-4.211,2.93,-6.165
-0.115,-0.919,0.455,-3.662,1.465,-5.615
-0.109,-0.915,0.461,-4.028,-0.183,-4.578
-0.108,-0.908,0.462,-4.211,-2.319,-3.601
1.271,2.194,-0.321,185.852,22.339,27.222
1.541,2.836,-0.506,216.736,20.325,9.766
1.975,3.226,-0.735,197.51,22.278,-31.25
2.178,3.307,-0.893,141.052,27.344,-105.408
2.024,3.225,-0.871,106.995,19.165,-205.078
1.594,3.192,-0.685,112.854,-8.545,-309.998
1.124,3.155,-0.393,138.855,-54.81,-393.86
0.712,2.943,-0.017,155.762,-116.577,-440.796
0.182,2.604,0.227,173.645,-187.561,-464.294
-0.456,1.884,0.497,204.163,-250.183,-479.675
-1.116,0.594,0.866,202.637,-291.626,-467.468
-1.505,-0.823,0.791,155.212,-339.355,-404.541
-1.685,-1.906,-0.275,106.079,-372.559,-346.008
-2.108,-2.45,-1.161,80.383,-310.303,-359.497
-2.586,-2.217,-0.941,56.213,-183.289,-412.964
-2.349,-1.642,-0.739,106.812,-84.29,-471.252
-1.342,-1.449,-1.269,223.694,-50.293,-486.816
-0.479,-1.939,-1.15,314.941,-16.602,-405.396
-0.442,-2.951,0.01,308.716,20.569,-251.099
-0.696,-3.985,0.421,229.614,-27.1,-119.446
-1.034,-4.0,0.209,118.469,-117.615,-75.684
-1.43,-3.874,0.008,-2.441,-160.583,-113.953
-1.471,-2.872,-0.373,-108.826,-153.992,-195.312
-1.023,-1.864,-0.542,-176.086,-98.083,-260.803
-0.46,-0.945,-0.497,-185.791,-20.63,-277.1
-0.358,-0.426,0.009,-159.18,51.514,-240.417
-0.224,-0.131,0.442,-121.277,77.942,-186.218
-0.062,-0.306,0.547,-69.702,55.969,-120.605
0.065,-0.735,0.91,-14.648,16.113,-61.462
-0.067,-1.064,0.823,42.114,-51.147,-22.583
-0.323,-1.112,0.478,81.299,-110.535,4.15
-0.491,-1.208,0.276,96.741,-127.625,38.025
-0.571,-1.437,0.333,96.252,-109.192,63.293
-0.589,-1.531,0.36,88.501,-82.52,65.857
-0.527,-1.469,0.316,69.336,-54.81,50.171
-0.433,-1.329,0.271,40.405,-23.56,31.738
-0.314,-1.237,0.318,12.268,9.155,17.09
-0.149,-1.154,0.377,-9.155,33.752,3.906
-0.027,-1.042,0.4,-22.766,46.265,-7.507
0.045,-0.917,0.432,-31.921,50.781,-13.123
0.117,-0.819,0.455,-37.842,48.462,-12.756
0.176,-0.756,0.483,-37.659,41.199,-9.46
0.19,-0.715,0.525,-30.823,30.151,-5.798
0.187,-0.693,0.55,-19.47,15.015,-2.625
0.15,-0.697,0.548,-6.348,-1.587,1.892
0.067,-0.747,0.53,6.47,-14.954,9.521
-0.013,-0.834,0.503,13.306,-23.193,18.616
-0.072,-0.923,0.463,15.076,-25.635,22.949
-0.118,-0.985,0.429,14.404,-21.79,20.874
-0.138,-1.015,0.421,10.315,-12.39,14.038
-0.102,-1.023,0.434,2.991,-0.854,4.578
-0.04,-0.99,0.45,-5.554,9.705,-4.028
0.008,-0.942,0.469,-13.367,16.907,-9.338
0.044,-0.898,0.483,-20.203,20.142,-11.169
0.064,-0.872,0.473,-24.78,18.982,-11.841
0.054,-0.858,0.454,-26.611,14.587,-12.451
0.023,-0.849,0.431,-26.367,9.216,-13.367
0.004,-0.839,0.395,-21.606,4.822,-14.648
0.008,-0.823,0.367,-11.23,3.601,-15.869
0.025,-0.811,0.377,1.526,5.005,-15.015
0.041,-0.812,0.405,12.756,6.836,-12.329
0.044,-0.834,0.426,22.156,6.897,-9.094
0.043,-0.879,0.432,30.151,6.348,-5.92
0.048,-0.941,0.441,33.813,5.371,-3.296
0.049,-0.992,0.431,32.898,2.38,-2.258
0.049,-1.03,0.407,28.687,-1.038,-2.869
0.046,-1.054,0.387,21.484,-4.089,-4.272
0.036,-1.051,0.359,12.085,-6.47,-6.042
0.02,-1.029,0.335,2.808,-8.362,-7.568
-0.006,-1.006,0.32,-3.418,-8.24,-9.827
-0.018,-1.0,0.319,-7.019,-6.226,-11.902
-0.01,-0.993,0.328,-9.277,-4.395,-12.329
-0.002,-0.968,0.334,-11.353,-3.113,-11.78
-0.019,-0.94,0.344,-12.207,-0.854,-10.498
-0.02,-0.938,0.369,-11.719,2.686,-8.118
0.0,-0.949,0.399,-12.329,5.31,-6.531
0.012,-0.953,0.417,-12.451,5.615,-6.592
0.019,-0.951,0.418,-12.207,3.662,-7.751
0.025,-0.943,0.413,-13.489,1.282,-9.155
0.028,-0.93,0.408,-14.648,-0.366,-9.827
0.022,-0.912,0.414,-14.099,-1.526,-9.766
0.018,-0.899,0.424,-11.902,-2.319,-10.132
0.023,-0.89,0.432,-8.85,-3.479,-10.193
0.024,-0.888,0.436,-5.249,-5.127,-9.277
-0.002,-0.917,0.442,-2.441,-6.897,-7.08
-0.036,-0.979,0.441,-3.418,-7.996,-4.395
-0.074,-1.04,0.42,-8.057,-7.446,-3.113
-0.1,-1.075,0.391,-14.526,-4.333,-5.066
-0.095,-1.079,0.373,-20.325,1.343,-8.911
-0.067,-1.054,0.381,-25.94,8.789,-13.428
-0.03,-1.0,0.406,-31.372,14.587,-16.968
-0.002,-0.94,0.433,-34.546,17.09,-17.883
0.028,-0.887,0.458,-34.546,16.846,-16.785
0.051,-0.851,0.472,-32.227,13.367,-14.771
0.057,-0.819,0.476,-27.283,7.69,-11.597
0.051,-0.801,0.468,-19.897,1.404,-7.69
0.046,-0.802,0.463,-11.841,-3.967,-3.418
0.027,-0.812,0.462,-3.418,-7.812,0.549
0.004,-0.846,0.46,4.578,-10.803,3.784
-0.011,-0.891,0.463,9.827,-11.902,5.92
-0.017,-0.932,0.459,11.841,-11.78,6.653
-0.022,-0.955,0.449,11.475,-10.437,5.798
-0.026,-0.957,0.441,9.583,-8.301,3.784
-0.026,-0.957,0.438,6.409,-5.615,1.709
-0.019,-0.965,0.451,2.502,-3.54,-0.244
-0.019,-0.965,0.466,-0.977,-2.441,-2.258
-0.02,-0.95,0.46,-3.723,-2.808,-3.601
-0.021,-0.934,0.448,-5.249,-3.662,-3.967
-0.018,-0.928,0.448,-5.127,-3.845,-3.235
-0.015,-0.924,0.453,-4.395,-3.662,-2.197
-0.013,-0.923,0.458,-3.052,-4.211,-0.854
-0.004,-0.928,0.455,-1.282,-5.432,0.916
-0.003,-0.935,0.453,-1.099,-6.409,2.441
-0.019,-0.942,0.452,-1.099,-7.141,3.174
-0.025,-0.947,0.447,-1.038,-7.324,3.418
-0.023,-0.946,0.444,-1.221,-6.409,2.563
-0.02,-0.936,0.449,-1.465,-5.249,1.16
-0.019,-0.932,0.459,-2.625,-4.517,0.183
-0.015,-0.929,0.466,-3.662,-4.517,-0.488
0.964,2.092,-0.258,14.404,0.916,-7.812
1.085,2.391,-0.442,14.893,-10.986,-47.729
1.241,2.676,-0.635,16.724,-18.494,-108.032
1.4,3.01,-0.816,33.569,-22.888,-185.303
1.591,3.383,-0.939,70.435,-21.912,-264.893
1.806,3.691,-0.925,125.854,-13.611,-338.623
1.812,3.668,-0.755,188.416,-5.188,-408.936
1.444,3.312,-0.546,225.037,-18.982,-478.027
0.726,2.774,-0.29,233.276,-75.5,-551.27
-0.075,2.194,-0.117,231.018,-164.856,-634.155
-0.819,1.526,0.034,203.125,-263.0,-702.82
-1.2,0.734,-0.023,165.405,-368.042,-726.685
-1.534,0.303,-0.615,153.809,-466.309,-747.681
-2.389,0.043,-0.811,175.537,-515.93,-770.813
-3.339,-0.576,-0.829,218.14,-524.353,-727.356
-3.965,-1.652,-1.257,215.088,-508.24,-603.577
-4.0,-3.04,-1.633,161.377,-445.129,-437.073
-3.958,-3.999,-1.762,113.281,-316.589,-279.175
-3.414,-3.996,-1.581,88.684,-141.968,-161.255
-2.745,-3.172,-1.037,79.895,17.517,-98.877
-2.021,-2.246,-0.505,65.796,110.596,-75.439
-1.384,-1.659,-0.086,48.157,139.587,-64.148
-0.945,-1.407,0.196,34.546,131.226,-56.702
-0.658,-1.378,0.484,30.457,102.661,-46.082
-0.439,-1.341,0.645,34.729,53.589,-31.067
-0.37,-1.224,0.478,38.696,-2.502,-16.846
-0.391,-1.146,0.301,39.917,-34.79,0.732
-0.42,-1.147,0.179,39.734,-39.673,11.719
-0.355,-1.118,0.121,39.978,-27.283,9.888
-0.211,-1.049,0.183,40.894,-5.188,0.549
-0.057,-0.989,0.294,39.307,14.709,-7.141
0.111,-0.98,0.477,33.63,24.17,-11.047
0.129,-0.982,0.532,24.109,16.602,-15.198
0.049,-1.032,0.542,13.245,3.723,-19.043
0.013,-1.089,0.609,1.221,-9.094,-23.315
-0.115,-1.047,0.39,-10.01,-23.193,-25.635
-0.254,-1.013,0.211,-21.24,-17.212,-19.958
-0.273,-1.109,0.281,-29.297,9.094,-13.0
-0.208,-1.192,0.369,-28.748,31.921,-17.517
-0.126,-1.075,0.468,-24.78,42.664,-30.884
-0.025,-0.935,0.445,-25.391,41.199,-33.325
-0.035,-0.947,0.487,-29.602,38.513,-22.766
-0.017,-0.967,0.533,-25.94,32.043,-14.832
-0.083,-0.959,0.455,-18.982,18.738,-12.634
-0.145,-0.955,0.437,-14.038,10.925,-13.184
-0.165,-1.006,0.445,-10.498,7.019,-13.611
-0.178,-1.068,0.463,-6.409,3.662,-15.93
-0.229,-1.062,0.423,-5.737,-0.977,-19.226
-0.25,-1.059,0.398,-9.094,-1.648,-19.531
-0.252,-1.055,0.369,-11.536,1.465,-16.785
-0.224,-1.025,0.369,-11.719,7.019,-12.695
-0.184,-0.999,0.391,-11.414,12.329,-7.935
-0.136,-0.976,0.406,-10.864,14.038,-3.54
-0.094,-0.964,0.424,-10.132,11.78,0.732
-0.059,-0.956,0.441,-9.155,6.592,3.418
-0.056,-0.93,0.426,-7.812,0.061,3.601
-0.068,-0.927,0.411,-7.141,-4.639,3.235
-0.073,-0.953,0.399,-6.165,-5.676,3.662
-0.086,-0.975,0.39,-6.653,-4.395,0.977
-0.086,-0.964,0.403,-11.047,-0.61,-4.578
-0.074,-0.929,0.417,-13.306,3.845,-11.536
-0.067,-0.886,0.431,-14.709,6.653,-16.357
-0.074,-0.865,0.456,-15.93,7.568,-16.846
-0.086,-0.864,0.459,-15.259,5.554,-14.526
-0.106,-0.863,0.432,-12.146,2.136,-11.169
-0.135,-0.882,0.424,-8.362,0.366,-6.287
-0.156,-0.905,0.424,-5.432,0.244,-1.404
-0.167,-0.929,0.413,-2.808,0.0,2.869
-0.174,-0.945,0.399,0.244,0.122,6.409
-0.168,-0.964,0.398,2.441,1.343,9.033
-0.159,-0.981,0.398,3.357,2.502,9.644
-0.159,-0.991,0.392,2.869,3.418,6.531
-0.147,-0.992,0.39,0.549,4.639,1.465
-0.136,-0.982,0.394,-2.563,6.653,-4.028
-0.124,-0.965,0.395,-5.676,8.606,-7.751
-0.107,-0.95,0.396,-8.85,9.949,-9.338
-0.098,-0.934,0.405,-11.841,10.864,-9.521
-0.091,-0.919,0.405,-14.038,10.62,-9.338
-0.083,-0.903,0.401,-14.404,9.521,-8.545
-0.078,-0.888,0.409,-13.55,8.24,-6.836
-0.076,-0.875,0.419,-10.925,6.409,-5.005
-0.074,-0.873,0.428,-7.874,3.784,-2.808
-0.073,-0.878,0.434,-4.761,0.671,0.122
-0.074,-0.893,0.435,-2.197,-2.991,3.296
-0.087,-0.911,0.431,-0.549,-6.47,6.165
-0.109,-0.925,0.425,-0.732,-9.46,6.592
-0.127,-0.933,0.412,-1.465,-11.23,4.761
-0.144,-0.934,0.406,-1.953,-10.437,0.977
-0.155,-0.935,0.412,-2.991,-7.202,-2.991
-0.153,-0.936,0.417,-4.822,-3.723,-5.432
-0.152,-0.927,0.424,-5.127,-0.488,-6.042
-0.152,-0.902,0.435,-4.517,2.93,-5.432
-0.146,-0.883,0.434,-2.747,5.676,-2.747
-0.134,-0.877,0.432,-0.183,7.629,1.099
-0.113,-0.882,0.428,2.38,8.789,4.272
-0.089,-0.892,0.425,5.432,9.033,6.775
-0.071,-0.912,0.425,8.118,8.179,7.874
-0.06,-0.946,0.422,8.667,6.226,7.202
-0.058,-0.968,0.415,6.226,3.54,5.493
-0.059,-0.971,0.402,2.93,1.038,2.38
-0.064,-0.958,0.39,-0.061,-0.732,-0.977
-0.065,-0.94,0.394,-2.625,-1.16,-2.625
-0.057,-0.932,0.406,-4.578,-1.465,-4.15
-0.044,-0.935,0.413,-5.31,-2.075,-4.822
-0.041,-0.947,0.421,-5.737,-2.441,-4.761
-0.04,-0.976,0.426,-7.019,-3.052,-4.211
-0.033,-1.009,0.428,-9.399,-3.418,-3.967
-0.039,-1.029,0.434,-12.756,-2.747,-4.761
-0.047,-1.036,0.45,-17.578,-1.953,-6.47
-0.054,-1.027,0.458,-22.339,-2.441,-9.399
-0.073,-1.0,0.46,-26.917,-3.418,-12.451
-0.097,-0.968,0.465,-31.067,-4.089,-14.771
-0.117,-0.939,0.466,-34.241,-4.272,-16.052
-0.136,-0.917,0.454,-35.889,-4.7,-15.991
-0.15,-0.892,0.442,-35.828,-4.639,-15.259
-0.157,-0.864,0.427,-33.264,-3.967,-14.16
-0.155,-0.849,0.423,-28.381,-2.93,-12.207
-0.141,-0.848,0.436,-22.583,-1.892,-9.216
-0.131,-0.858,0.451,-17.578,-2.014,-5.92
0.906,2.368,-0.292,90.271,21.667,0.916
1.101,2.935,-0.547,143.066,11.047,-23.804
1.423,3.309,-0.815,160.645,4.578,-75.195
1.702,3.399,-1.05,141.235,20.264,-154.175
1.929,3.235,-1.188,101.257,54.932,-245.544
1.944,3.082,-1.121,72.815,85.754,-345.703
1.51,3.02,-0.769,71.167,86.914,-464.111
0.886,3.032,-0.376,84.106,36.621,-578.43
0.359,2.924,-0.132,99.792,-59.875,-661.743
-0.039,2.742,0.116,121.155,-169.983,-701.843
-0.873,2.662,0.526,174.622,-270.447,-720.52
-1.894,2.118,0.657,280.579,-350.83,-734.985
-2.24,0.98,0.515,313.293,-429.871,-675.659
-2.779,-0.864,0.06,253.784,-481.567,-522.034
-3.784,-3.08,-0.763,200.562,-447.876,-371.765
-4.0,-4.0,-1.309,120.667,-348.633,-274.231
-4.0,-4.0,-1.72,-10.071,-200.867,-221.802
-3.353,-4.0,-1.736,-136.23,-16.602,-270.813
-2.134,-3.884,-1.208,-204.773,156.677,-380.249
-0.965,-2.195,-0.803,-212.097,244.446,-428.467
0.056,-0.85,-0.483,-153.442,273.315,-384.338
0.223,0.061,0.548,-95.52,324.463,-266.052
0.123,-0.079,1.397,-73.425,309.387,-141.113
0.467,-0.576,1.482,-4.395,181.824,-47.302
0.404,-0.904,1.393,68.909,38.513,-11.597
0.239,-0.76,1.237,119.995,-97.656,-30.029
0.265,-0.794,0.794,149.414,-214.355,-32.166
0.111,-0.933,0.219,165.71,-276.001,-29.236
-0.208,-1.208,-0.036,169.617,-271.057,-17.7
-0.626,-1.543,-0.017,150.818,-222.168,-7.69
-0.902,-1.764,-0.153,118.042,-160.339,-5.493
-0.831,-1.899,-0.042,74.829,-76.965,-7.996
-0.6,-1.921,0.385,29.785,3.113,-21.057
-0.434,-1.666,0.539,-9.521,44.434,-43.945
-0.252,-1.353,0.502,-48.096,58.105,-58.777
-0.095,-1.142,0.525,-74.158,65.063,-59.448
0.006,-1.033,0.6,-77.942,62.561,-51.27
0.004,-0.922,0.546,-64.697,48.401,-43.701
0.059,-0.801,0.501,-44.617,33.203,-33.142
0.133,-0.786,0.5,-24.536,22.888,-16.479
0.124,-0.818,0.471,-5.005,12.451,0.793
0.115,-0.877,0.51,13.55,4.333,13.611
0.137,-0.932,0.547,27.954,-6.287,19.043
0.132,-0.97,0.527,37.72,-20.752,19.714
0.081,-1.004,0.495,41.626,-32.532,19.226
-0.007,-1.068,0.453,37.415,-38.269,18.738
-0.07,-1.153,0.433,27.344,-36.621,15.015
-0.104,-1.197,0.43,14.343,-29.968,7.324
-0.129,-1.178,0.444,1.343,-21.423,-2.869
-0.131,-1.108,0.462,-10.559,-13.428,-12.939
-0.094,-1.014,0.474,-21.729,-6.897,-19.409
-0.06,-0.925,0.466,-28.564,-2.625,-20.325
-0.036,-0.848,0.459,-30.151,0.732,-16.479
-0.002,-0.81,0.467,-28.015,3.052,-10.681
0.03,-0.804,0.474,-21.973,3.723,-6.226
0.052,-0.816,0.484,-14.648,2.38,-3.906
0.071,-0.834,0.489,-9.583,-0.793,-2.808
0.074,-0.85,0.482,-6.47,-5.127,-2.563
0.06,-0.875,0.475,-4.822,-10.193,-1.77
0.034,-0.908,0.472,-4.883,-14.832,-0.244
0.005,-0.931,0.464,-6.47,-18.372,-0.61
-0.019,-0.945,0.455,-7.69,-20.386,-3.235
-0.031,-0.944,0.452,-8.85,-20.935,-6.653
-0.038,-0.923,0.455,-10.498,-21.301,-8.728
-0.059,-0.884,0.454,-10.803,-21.362,-7.263
-0.092,-0.861,0.444,-8.179,-21.057,-1.77
-0.123,-0.876,0.425,-3.967,-19.958,5.737
-0.131,-0.918,0.402,0.122,-17.09,12.451
-0.102,-0.966,0.407,3.357,-11.719,15.381
-0.062,-0.993,0.441,5.615,-6.165,15.442
-0.032,-0.988,0.473,5.554,-4.7,13.611
-0.023,-0.965,0.482,2.686,-6.775,10.437
-0.029,-0.953,0.469,-1.587,-9.888,6.042
-0.04,-0.95,0.454,-4.333,-10.559,1.404
-0.039,-0.948,0.453,-7.08,-8.728,-2.502
-0.024,-0.942,0.464,-10.62,-5.493,-5.249
-0.009,-0.923,0.481,-14.343,-2.808,-7.263
0.004,-0.898,0.496,-16.846,-0.854,-8.301
0.007,-0.873,0.512,-17.883,-0.305,-8.24
0.003,-0.859,0.531,-17.395,-0.366,-6.592
-0.004,-0.852,0.544,-15.991,-0.732,-4.089
-0.003,-0.845,0.548,-14.282,-1.343,-0.427
-0.002,-0.842,0.555,-11.902,-2.136,3.967
-0.009,-0.834,0.559,-9.46,-3.845,7.019
-0.027,-0.832,0.549,-7.324,-5.676,7.385
-0.045,-0.841,0.539,-4.272,-6.775,6.226
-0.055,-0.857,0.536,-1.831,-5.981,3.052
-0.044,-0.868,0.529,-1.404,-4.456,-1.648
-0.038,-0.862,0.521,-1.404,-2.441,-6.226
-0.041,-0.853,0.517,-0.793,0.183,-9.644
-0.042,-0.856,0.514,0.305,2.563,-10.559
-0.033,-0.868,0.52,0.916,5.127,-9.277
-0.027,-0.88,0.529,0.671,6.714,-7.324
-0.029,-0.875,0.529,0.122,6.409,-5.493
-0.034,-0.868,0.513,0.427,5.005,-3.418
-0.03,-0.871,0.498,0.671,4.578,-0.977
-0.025,-0.88,0.488,1.099,4.211,1.16
-0.019,-0.881,0.484,2.625,3.662,2.197
-0.014,-0.878,0.48,4.333,2.93,1.404
-0.005,-0.882,0.48,6.104,2.38,-0.183
0.007,-0.895,0.483,6.653,1.282,-1.343
0.01,-0.91,0.482,5.737,-0.549,-2.38
0.006,-0.913,0.473,4.333,-2.625,-2.869
-0.012,-0.899,0.456,3.296,-3.479,-3.723
-0.03,-0.895,0.449,3.235,-1.831,-5.249
-0.018,-0.908,0.462,2.869,2.197,-7.202
0.01,-0.912,0.479,1.709,5.554,-8.606
0.014,-0.902,0.503,0.977,6.531,-9.216
0.009,-0.892,0.514,0.488,5.188,-8.667
0.008,-0.897,0.508,-0.244,2.258,-6.897
-0.006,-0.907,0.505,-1.038,0.488,-4.883
-0.022,-0.911,0.5,-1.648,-0.793,-3.54
-0.034,-0.906,0.493,-1.343,-1.221,-3.296
-0.039,-0.904,0.486,-0.793,-0.793,-4.517
-0.034,-0.907,0.481,-0.61,0.183,-5.249
-0.037,-0.912,0.478,-0.427,0.671,-5.554
-0.043,-0.921,0.476,0.183,0.916,-5.371
-0.042,-0.934,0.468,0.671,0.549,-4.883
-0.042,-0.935,0.457,1.343,0.061,-4.456
0.843,2.299,-0.273,36.255,-1.892,-7.263
0.89,2.726,-0.432,49.866,-4.211,-45.959
1.123,3.035,-0.698,83.679,-3.357,-107.178
1.518,3.357,-0.982,110.168,9.277,-189.026
1.899,3.539,-1.189,127.869,41.077,-286.804
2.125,3.565,-1.142,145.63,83.679,-379.456
1.875,3.525,-0.886,155.334,108.948,-451.904
0.986,3.293,-0.358,163.269,79.59,-524.109
0.235,2.93,0.046,174.377,-16.235,-595.276
-0.049,2.545,0.192,188.538,-151.245,-645.081
-0.307,2.359,0.467,202.637,-290.649,-680.786
-1.485,2.439,0.284,271.851,-401.245,-738.159
-2.105,1.448,0.068,338.806,-442.2,-741.394
-2.791,0.023,-0.356,221.069,-469.849,-650.696
-3.821,-1.874,-0.905,131.042,-419.556,-542.664
-4.0,-3.613,-1.314,78.552,-313.11,-463.44
-4.0,-4.0,-1.693,11.23,-189.27,-430.176
-4.0,-4.0,-1.943,-52.49,-59.265,-441.162
-2.731,-3.993,-1.541,-96.497,71.594,-481.812
-1.272,-2.902,-1.04,-95.703,148.132,-474.915
-0.456,-1.679,-0.313,-72.876,177.795,-382.874
-0.775,-0.743,0.99,-89.172,191.04,-239.868
-0.914,-0.618,1.153,-96.863,96.375,-120.422
-0.811,-0.855,1.077,-38.635,-36.743,-46.57
-1.079,-0.879,0.732,60.364,-143.677,-32.837
-1.349,-0.826,0.089,149.475,-207.275,-38.086
-1.2,-1.237,0.035,193.115,-194.519,-21.179
-1.145,-1.855,0.158,196.472,-146.912,10.62
-1.172,-2.322,0.215,165.71,-97.412,35.339
-1.129,-2.48,0.326,100.891,-45.471,41.504
-0.979,-2.344,0.429,20.691,2.075,22.888
-0.759,-1.873,0.395,-54.077,36.072,-14.648
-0.45,-1.298,0.312,-109.924,61.523,-49.377
-0.107,-0.812,0.357,-137.024,81.726,-65.735
0.094,-0.484,0.394,-133.972,90.027,-61.279
0.182,-0.341,0.488,-109.741,88.501,-42.725
0.168,-0.17,0.567,-70.862,74.402,-22.522
0.318,-0.327,0.671,-27.893,47.852,2.747
0.284,-0.572,0.781,9.827,16.052,18.921
0.148,-0.621,0.657,38.574,-24.414,26.306
-0.063,-0.768,0.493,48.462,-51.392,34.18
-0.208,-1.0,0.461,49.866,-57.007,33.875
-0.28,-1.176,0.533,49.316,-53.833,22.522
-0.357,-1.223,0.543,44.922,-51.514,1.465
-0.408,-1.118,0.472,33.203,-47.913,-14.282
-0.447,-1.05,0.429,16.052,-36.255,-15.137
-0.446,-1.087,0.485,3.296,-18.005,-7.08
-0.451,-1.092,0.487,-1.77,-5.493,-1.465
-0.411,-1.059,0.507,-4.7,2.93,0.549
-0.354,-0.999,0.495,-8.545,8.972,2.014
-0.293,-0.939,0.49,-11.719,13.123,5.859
-0.26,-0.91,0.495,-13.367,15.747,11.292
-0.227,-0.894,0.5,-12.817,15.869,15.32
-0.184,-0.883,0.49,-10.62,13.794,16.907
-0.154,-0.877,0.486,-7.751,10.742,16.296
-0.132,-0.875,0.487,-5.432,7.263,14.587
-0.137,-0.876,0.451,-3.113,3.723,11.719
-0.145,-0.891,0.433,-3.052,3.784,8.789
-0.118,-0.902,0.466,-5.249,6.653,4.944
-0.091,-0.873,0.484,-6.775,6.958,0.244
-0.086,-0.838,0.49,-7.324,4.456,-2.563
-0.092,-0.833,0.501,-7.812,1.343,-2.075
-0.121,-0.844,0.502,-6.287,-2.014,-1.404
-0.156,-0.853,0.494,-2.747,-4.211,-0.671
-0.164,-0.87,0.483,-0.061,-4.517,0.427
-0.16,-0.885,0.483,1.465,-3.296,1.953
-0.154,-0.895,0.485,1.953,-1.831,2.869
-0.152,-0.9,0.479,1.648,-1.343,3.113
-0.165,-0.892,0.452,1.038,-1.709,2.258
-0.196,-0.893,0.426,2.441,-0.916,0.977
-0.217,-0.915,0.429,4.395,2.502,-0.488
-0.214,-0.952,0.436,4.761,6.409,-2.258
-0.194,-0.977,0.437,2.625,8.911,-4.211
-0.175,-0.983,0.434,-0.671,9.827,-5.249
-0.152,-0.971,0.425,-3.906,9.338,-5.432
-0.134,-0.949,0.425,-6.958,8.789,-4.761
-0.131,-0.927,0.427,-8.606,7.019,-3.113
-0.125,-0.925,0.434,-8.911,4.517,-1.282
-0.11,-0.934,0.453,-8.789,1.648,-0.305
-0.109,-0.932,0.475,-9.949,-2.075,0.244
-0.123,-0.918,0.484,-12.512,-6.226,0.366
-0.133,-0.906,0.476,-15.015,-9.888,0.61
-0.146,-0.888,0.474,-17.151,-11.047,0.61
-0.167,-0.861,0.478,-18.982,-9.277,0.0
-0.181,-0.839,0.485,-18.311,-5.249,-1.709
-0.173,-0.834,0.505,-15.869,-0.671,-2.441
-0.159,-0.835,0.536,-14.709,3.845,-2.258
-0.157,-0.829,0.558,-14.099,5.615,-2.197
-0.16,-0.818,0.551,-13.428,4.578,-2.441
-0.169,-0.826,0.53,-12.573,2.93,-2.808
-0.179,-0.843,0.518,-11.658,2.502,-2.991
-0.178,-0.853,0.506,-10.742,2.869,-3.967
-0.165,-0.85,0.492,-8.911,3.235,-5.066
-0.152,-0.84,0.484,-7.08,3.967,-4.883
-0.141,-0.826,0.477,-5.188,4.272,-3.113
-0.138,-0.821,0.466,-2.38,3.418,-1.587
-0.148,-0.826,0.458,1.343,2.686,-0.61
-0.149,-0.847,0.46,5.127,2.747,-0.183
-0.141,-0.866,0.471,7.141,3.174,-0.305
-0.136,-0.883,0.488,8.24,2.747,-0.549
-0.13,-0.904,0.492,7.385,1.892,-0.61
-0.13,-0.915,0.486,3.296,0.488,-1.282
-0.127,-0.908,0.484,-0.854,0.61,-2.808
-0.115,-0.889,0.484,-3.967,1.648,-5.188
-0.101,-0.865,0.494,-6.531,2.808,-7.08
-0.088,-0.847,0.504,-7.874,2.625,-7.935
-0.087,-0.837,0.514,-8.484,0.671,-7.08
-0.107,-0.832,0.513,-8.484,-2.258,-5.981
-0.133,-0.835,0.502,-7.263,-4.272,-5.249
-0.153,-0.837,0.491,-5.371,-4.7,-5.005
-0.165,-0.841,0.496,-2.869,-3.418,-5.432
-0.165,-0.855,0.508,-0.488,-1.282,-5.798
-0.169,-0.871,0.516,0.732,0.183,-5.92
-0.176,-0.89,0.512,1.465,0.854,-5.798
-0.173,-0.905,0.505,1.709,2.441,-5.737
-0.167,-0.912,0.51,0.427,4.211,-6.104
-0.163,-0.905,0.516,-1.648,5.432,-6.348
-0.157,-0.898,0.513,-3.784,4.7,-5.981
-0.155,-0.892,0.504,-5.432,2.991,-5.554
1.026,2.324,-0.34,29.663,13.245,11.963
1.216,2.708,-0.614,64.026,-0.61,-15.503
1.386,3.025,-0.825,73.486,-3.113,-62.378
1.71,3.093,-1.095,85.999,11.475,-120.178
1.946,3.02,-1.208,80.872,41.504,-186.462
1.86,2.829,-1.042,72.693,72.083,-275.696
1.578,2.659,-0.775,87.952,75.073,-374.268
1.139,2.576,-0.501,110.046,42.053,-466.98
0.638,2.452,-0.225,120.3,-14.099,-542.358
0.271,2.121,0.03,129.822,-87.402,-589.539
0.051,1.58,0.323,136.169,-173.95,-616.821
-0.26,1.226,0.602,141.785,-282.959,-657.959
-1.146,1.493,0.464,186.279,-382.69,-730.286
-2.254,1.256,0.506,235.229,-422.302,-752.93
-3.005,0.289,0.293,209.29,-439.27,-660.889
-3.611,-1.569,-0.618,173.34,-422.546,-510.01
-3.979,-3.458,-1.529,120.239,-348.389,-398.193
-3.983,-4.0,-1.389,28.076,-207.52,-353.882
-3.297,-4.0,-0.852,-66.101,-52.734,-348.633
-2.609,-3.852,-0.617,-123.596,37.598,-376.343
-1.879,-2.307,-0.591,-134.583,81.848,-360.657
-1.228,-1.131,-0.298,-95.215,114.563,-276.978
-1.012,-0.489,0.534,-57.19,150.269,-165.161
-0.745,-0.668,1.058,-30.945,123.108,-56.885
-0.5,-1.056,1.024,21.912,30.396,7.202
-0.419,-1.073,0.756,93.018,-62.561,20.935
-0.51,-1.03,0.382,150.818,-123.901,20.203
-0.577,-1.289,0.203,172.546,-140.198,30.64
-0.649,-1.713,0.089,159.18,-125.0,40.771
-0.652,-2.013,0.103,127.075,-91.492,32.349
-0.591,-2.032,0.206,81.909,-50.354,3.479
-0.479,-1.766,0.315,29.48,-13.977,-30.762
-0.253,-1.485,0.425,-20.447,12.207,-54.749
-0.166,-1.156,0.359,-57.556,24.841,-66.711
-0.157,-0.84,0.274,-75.928,35.706,-63.293
-0.103,-0.66,0.292,-78.064,51.636,-48.279
0.046,-0.695,0.432,-64.209,62.134,-31.616
0.075,-0.649,0.486,-41.077,56.274,-23.132
0.148,-0.62,0.493,-20.203,38.574,-13.428
0.173,-0.797,0.578,-7.812,20.142,-2.258
0.133,-0.878,0.554,3.967,-5.432,0.61
0.014,-0.853,0.398,11.047,-29.846,2.869
-0.055,-0.939,0.368,12.817,-35.217,5.676
-0.063,-1.077,0.436,14.343,-32.349,4.211
-0.122,-1.139,0.425,13.733,-32.043,-4.456
-0.202,-1.087,0.382,4.333,-28.687,-13.489
-0.228,-1.112,0.397,-11.475,-18.677,-15.991
-0.245,-1.137,0.416,-24.353,-8.24,-17.456
-0.234,-1.092,0.444,-31.921,-0.183,-20.02
-0.205,-1.012,0.474,-37.842,6.042,-21.24
-0.171,-0.935,0.484,-41.504,9.521,-18.921
-0.141,-0.885,0.499,-42.542,11.292,-13.0
-0.132,-0.832,0.498,-40.588,10.315,-6.836
-0.121,-0.803,0.487,-35.034,8.423,-3.479
-0.106,-0.757,0.474,-26.917,7.08,-2.747
-0.079,-0.762,0.467,-19.104,7.019,-0.854
-0.046,-0.78,0.499,-11.841,7.08,0.427
-0.008,-0.829,0.526,-5.31,3.967,0.61
0.007,-0.866,0.525,-1.221,-1.77,-1.404
-0.018,-0.883,0.495,-1.892,-7.08,-3.052
-0.053,-0.9,0.468,-6.226,-9.033,-4.028
-0.072,-0.914,0.461,-10.071,-7.874,-5.859
-0.072,-0.908,0.484,-10.864,-5.981,-8.667
-0.082,-0.875,0.489,-9.644,-5.493,-11.108
-0.098,-0.858,0.491,-8.606,-5.371,-10.742
-0.112,-0.872,0.508,-7.629,-4.944,-7.629
-0.114,-0.893,0.508,-6.165,-5.554,-4.944
-0.121,-0.898,0.497,-4.883,-6.714,-3.601
-0.138,-0.901,0.488,-4.089,-7.141,-2.258
-0.138,-0.912,0.483,-4.211,-6.409,-1.221
-0.137,-0.913,0.488,-4.517,-5.737,-0.916
-0.143,-0.908,0.483,-4.944,-5.066,-1.648
-0.135,-0.904,0.484,-5.31,-4.333,-2.686
-0.124,-0.897,0.49,-5.92,-3.967,-3.418
-0.121,-0.897,0.496,-6.714,-4.028,-2.747
-0.125,-0.903,0.494,-7.019,-4.333,-1.892
-0.129,-0.907,0.489,-5.615,-4.761,-1.892
-0.129,-0.914,0.487,-4.639,-4.456,-2.991
-0.115,-0.919,0.495,-5.127,-2.93,-4.395
-0.102,-0.914,0.505,-7.08,-1.221,-5.554
-0.092,-0.904,0.515,-9.399,-0.793,-5.676
-0.087,-0.895,0.517,-11.536,-1.343,-4.822
-0.087,-0.889,0.521,-13.123,-2.075,-3.662
-0.094,-0.877,0.524,-14.465,-2.991,-3.052
-0.101,-0.859,0.526,-14.893,-3.845,-2.625
-0.105,-0.845,0.53,-14.282,-4.272,-2.197
-0.105,-0.839,0.54,-13.062,-4.639,-1.953
-0.114,-0.834,0.55,-11.353,-5.798,-1.831
-0.132,-0.839,0.551,-9.155,-7.019,-1.099
-0.145,-0.858,0.547,-7.874,-7.263,-0.427
-0.159,-0.882,0.535,-7.08,-5.859,-1.038
-0.168,-0.892,0.527,-7.629,-2.93,-2.991
-0.162,-0.89,0.526,-9.399,1.343,-5.066
-0.144,-0.875,0.525,-10.193,5.432,-6.897
-0.126,-0.857,0.527,-10.254,8.301,-7.568
-0.111,-0.844,0.534,-10.071,9.46,-6.897
-0.091,-0.838,0.53,-8.972,8.606,-5.249
-0.071,-0.834,0.525,-7.263,6.714,-3.784
-0.061,-0.826,0.529,-4.822,4.7,-2.441
-0.06,-0.818,0.529,-1.77,1.648,-0.916
-0.063,-0.826,0.521,0.854,-1.953,0.549
-0.072,-0.849,0.516,2.502,-4.822,2.319
-0.098,-0.871,0.501,3.784,-6.775,3.418
-0.126,-0.899,0.479,4.822,-6.958,2.93
-0.134,-0.926,0.477,3.967,-3.906,0.793
-0.112,-0.937,0.499,0.671,0.427,-2.38
-0.094,-0.911,0.516,-2.808,3.54,-5.798
-0.086,-0.876,0.528,-5.554,4.395,-7.874
-0.073,-0.85,0.536,-7.629,3.967,-7.935
-0.061,-0.835,0.537,-7.507,2.38,-7.202
-0.055,-0.825,0.538,-5.798,0.427,-5.92
-0.049,-0.826,0.547,-3.54,-1.465,-4.395
-0.056,-0.834,0.555,-1.587,-3.54,-2.93
-0.074,-0.848,0.559,-0.427,-5.981,-1.709
-0.1,-0.863,0.555,-0.122,-8.667,-0.916
-0.13,-0.879,0.536,0.061,-10.132,-1.465
-0.149,-0.887,0.518,-0.305,-8.728,-2.563
-0.161,-0.884,0.517,-0.488,-4.822,-3.662
-0.154,-0.871,0.512,-0.427,-0.061,-4.883
0.938,1.571,-0.116,23.132,12.756,-1.892
0.943,1.458,-0.217,22.583,27.283,-19.409
0.95,1.387,-0.285,23.071,48.584,-47.913
1.063,1.445,-0.367,39.978,68.237,-85.205
1.267,1.595,-0.428,68.787,81.116,-133.057
1.437,1.792,-0.421,97.839,87.158,-189.026
1.534,2.028,-0.367,115.112,81.604,-243.164
1.503,2.224,-0.3,116.394,55.359,-292.908
1.351,2.313,-0.241,103.088,9.033,-346.436
1.149,2.285,-0.245,81.97,-51.208,-409.912
0.916,2.247,-0.303,59.021,-113.586,-488.708
0.727,2.199,-0.302,44.434,-167.236,-572.571
0.469,2.366,-0.163,43.03,-220.154,-649.475
-0.034,2.594,-0.123,82.825,-276.917,-711.731
-0.68,2.621,-0.159,154.907,-324.158,-748.169
-1.304,2.299,-0.17,208.984,-366.089,-738.953
-2.188,1.525,0.009,238.037,-405.579,-678.65
-3.103,0.101,-0.078,272.705,-427.979,-568.054
-3.901,-1.958,-0.845,271.729,-416.138,-425.964
-4.0,-3.959,-1.67,188.904,-344.543,-301.575
-4.0,-4.0,-1.562,70.74,-206.543,-223.022
-3.988,-4.0,-1.264,-37.231,-49.988,-228.21
-2.969,-4.0,-1.22,-142.517,76.965,-302.673
-1.995,-3.023,-0.891,-200.378,161.316,-353.394
-1.249,-1.609,-0.532,-197.815,199.646,-339.6
-0.657,-0.6,-0.096,-147.156,212.952,-272.034
-0.427,-0.169,0.77,-96.191,225.586,-169.067
-0.3,-0.385,1.317,-58.716,180.542,-64.88
-0.174,-0.708,1.304,-5.371,71.777,13.916
-0.108,-0.956,1.145,51.819,-37.354,50.964
-0.075,-1.136,0.916,97.534,-124.634,50.598
-0.198,-1.206,0.466,122.375,-183.105,36.804
-0.463,-1.089,0.003,126.282,-193.298,25.574
-0.366,-1.225,0.154,114.197,-150.757,29.541
-0.37,-1.417,0.315,92.59,-103.76,30.212
-0.473,-1.402,0.293,65.674,-67.932,19.836
-0.356,-1.303,0.402,30.579,-28.442,4.333
-0.166,-1.192,0.537,-2.075,2.625,-9.033
-0.111,-1.028,0.541,-25.269,16.541,-20.691
-0.085,-0.915,0.573,-41.321,22.888,-27.588
-0.064,-0.858,0.606,-47.974,22.827,-30.273
-0.089,-0.817,0.542,-46.753,15.808,-29.785
-0.113,-0.796,0.49,-40.1,11.23,-24.902
-0.112,-0.815,0.514,-29.053,11.108,-16.724
-0.145,-0.834,0.5,-16.724,8.728,-9.216
-0.132,-0.863,0.559,-7.568,5.371,-4.456
-0.135,-0.901,0.563,-0.305,-2.808,-3.174
-0.213,-0.891,0.462,4.089,-11.841,-4.272
-0.25,-0.915,0.465,2.93,-11.597,-3.54
-0.276,-0.988,0.478,0.854,-8.728,-2.93
-0.294,-1.029,0.502,0.732,-7.202,-5.615
-0.304,-1.016,0.509,0.427,-6.897,-10.681
-0.312,-0.979,0.49,-0.793,-7.324,-13.367
-0.295,-0.956,0.513,-2.991,-5.615,-11.047
-0.281,-0.94,0.498,-3.723,-5.615,-6.226
-0.267,-0.91,0.456,-2.93,-6.592,-1.16
-0.251,-0.891,0.436,-1.831,-4.089,3.662
-0.23,-0.899,0.426,-0.793,0.061,7.629
-0.205,-0.895,0.431,0.0,3.113,9.521
-0.173,-0.896,0.427,-1.16,5.371,9.644
-0.146,-0.895,0.423,-2.869,6.836,8.24
-0.126,-0.894,0.433,-4.211,7.568,5.554
-0.115,-0.89,0.439,-5.493,7.874,1.343
-0.098,-0.872,0.446,-7.812,7.874,-2.808
-0.079,-0.85,0.456,-10.437,6.042,-5.432
-0.061,-0.837,0.467,-11.475,2.563,-6.592
-0.083,-0.821,0.458,-10.803,-2.441,-7.202
-0.133,-0.826,0.456,-8.118,-5.92,-7.385
-0.162,-0.86,0.465,-5.737,-7.324,-7.874
-0.177,-0.876,0.467,-4.883,-7.935,-8.484
-0.193,-0.88,0.467,-4.15,-7.751,-8.118
-0.198,-0.889,0.469,-4.211,-7.629,-6.592
-0.202,-0.899,0.479,-5.188,-7.263,-4.089
-0.213,-0.902,0.484,-5.859,-7.324,-1.587
-0.213,-0.902,0.487,-6.165,-7.751,0.183
-0.209,-0.905,0.491,-6.409,-7.874,0.671
-0.204,-0.908,0.499,-7.324,-8.118,0.305
-0.199,-0.903,0.505,-8.606,-8.911,-0.183
-0.202,-0.886,0.499,-9.033,-10.62,-0.244
-0.221,-0.875,0.465,-7.202,-12.329,-0.244
-0.239,-0.893,0.451,-4.395,-10.376,0.732
-0.226,-0.917,0.461,-3.723,-5.798,1.221
-0.196,-0.926,0.486,-4.883,-2.136,0.366
-0.172,-0.922,0.499,-5.249,-0.671,-1.099
-0.158,-0.904,0.502,-7.385,-1.099,-1.648
-0.165,-0.879,0.496,-10.01,-2.014,-1.099
-0.181,-0.867,0.486,-10.62,-1.831,-0.793
-0.187,-0.866,0.491,-9.766,-0.061,-1.526
-0.178,-0.87,0.51,-9.949,2.075,-4.028
-0.161,-0.868,0.518,-10.62,2.991,-6.897
-0.148,-0.862,0.52,-11.719,2.686,-8.423
-0.147,-0.85,0.521,-13.306,2.38,-8.24
-0.156,-0.835,0.517,-13.855,1.831,-7.568
-0.17,-0.822,0.512,-12.085,1.526,-6.714
-0.176,-0.821,0.513,-9.399,1.343,-6.348
-0.172,-0.826,0.515,-5.31,1.16,-5.737
-0.168,-0.835,0.517,-0.732,0.366,-4.089
-0.166,-0.857,0.515,2.136,-0.977,-1.465
-0.182,-0.875,0.507,3.052,-2.991,1.038
-0.202,-0.891,0.489,3.296,-3.784,2.38
-0.209,-0.91,0.481,3.052,-2.869,2.136
-0.204,-0.92,0.474,2.258,-0.977,0.244
-0.189,-0.916,0.471,0.977,1.221,-2.075
-0.177,-0.907,0.469,-0.549,2.808,-3.723
-0.163,-0.901,0.471,-1.831,3.723,-4.089
-0.151,-0.891,0.472,-2.38,3.601,-3.601
-0.147,-0.875,0.47,-1.831,2.869,-3.357
-0.141,-0.875,0.477,-0.732,2.319,-2.869
-0.131,-0.876,0.499,-0.916,1.77,-2.502
-0.129,-0.87,0.513,-1.038,0.061,-2.136
-0.136,-0.864,0.514,-0.916,-2.625,-2.075
-0.149,-0.862,0.514,-1.831,-4.456,-1.587
-0.163,-0.862,0.513,-2.869,-5.249,-1.465
-0.184,-0.861,0.507,-3.601,-5.737,-1.282
-0.207,-0.87,0.503,-4.395,-5.31,-1.16
-0.215,-0.879,0.491,-5.31,-4.211,-0.977
-0.218,-0.877,0.47,-5.92,-1.953,-0.793
-0.217,-0.879,0.463,-5.188,2.014,-1.404
-0.195,-0.882,0.487,-5.432,6.348,-1.892
0.87,2.325,-0.464,52.856,27.832,34.607
1.101,2.731,-0.702,64.636,19.653,-2.502
1.57,2.884,-1.059,67.81,26.917,-85.815
2.06,3.02,-1.31,39.307,59.814,-195.251
2.316,3.137,-1.275,21.851,107.117,-313.354
2.263,3.265,-0.907,47.241,135.742,-423.157
1.773,3.335,-0.354,84.229,106.506,-505.615
1.089,3.261,-0.026,117.371,11.597,-567.688
0.559,2.872,0.04,152.71,-116.516,-614.624
0.187,2.451,0.027,178.772,-247.314,-637.634
-0.778,2.209,0.071,224.365,-348.511,-660.95
-2.208,1.412,-0.034,327.393,-385.437,-695.862
-2.772,0.158,0.099,297.119,-395.691,-656.311
-3.324,-1.63,-0.166,193.054,-378.784,-530.396
-3.721,-3.656,-0.724,146.973,-312.561,-421.936
-3.895,-4.0,-1.104,44.189,-211.548,-366.089
-3.606,-4.0,-0.936,-82.275,-85.449,-377.869
-2.741,-3.984,-0.713,-151.123,14.16,-418.274
-1.738,-2.557,-0.756,-156.128,70.374,-422.974
-0.724,-1.228,-0.482,-104.187,111.694,-345.398
-0.542,-0.555,0.67,-67.505,154.724,-213.501
-0.458,-0.713,1.222,-51.331,107.483,-92.102
-0.205,-1.017,1.025,12.024,-22.949,-17.944
-0.404,-1.114,0.664,109.68,-136.841,-1.404
-0.626,-0.974,0.247,192.322,-209.167,-8.789
-0.68,-1.341,0.081,213.501,-226.44,2.136
-0.799,-2.007,0.24,178.345,-197.754,18.677
-0.926,-2.513,0.318,114.868,-156.799,14.343
-1.031,-2.526,0.194,34.241,-108.948,-18.311
-0.96,-2.074,0.094,-48.95,-44.678,-62.073
-0.555,-1.56,0.272,-114.441,24.902,-97.717
-0.187,-1.071,0.374,-151.001,70.007,-119.568
0.01,-0.587,0.376,-160.217,88.745,-121.643
0.08,-0.303,0.418,-149.048,95.093,-99.243
0.111,-0.269,0.505,-119.202,91.309,-66.589
0.192,-0.517,0.725,-74.585,75.073,-39.734
0.149,-0.387,0.674,-28.259,38.208,-28.198
0.188,-0.662,0.68,1.282,2.625,0.305
0.094,-0.875,0.685,19.531,-26.306,14.282
-0.063,-0.95,0.414,30.334,-54.749,25.391
-0.202,-0.999,0.387,28.442,-57.434,29.785
-0.193,-1.186,0.461,23.376,-45.776,30.762
-0.268,-1.183,0.379,19.165,-38.818,16.846
-0.267,-1.106,0.419,11.475,-23.682,2.258
-0.26,-1.096,0.472,-4.639,-7.202,-7.812
-0.257,-1.016,0.454,-17.822,4.578,-15.381
-0.219,-0.955,0.508,-26.978,15.625,-18.25
-0.178,-0.914,0.541,-30.457,21.667,-20.264
-0.135,-0.846,0.56,-28.687,22.034,-19.958
-0.086,-0.808,0.591,-25.757,18.127,-16.663
-0.057,-0.788,0.581,-21.118,10.071,-11.23
-0.026,-0.795,0.586,-15.93,0.061,-4.211
-0.029,-0.776,0.561,-10.437,-9.949,2.197
-0.054,-0.799,0.523,-5.676,-16.541,8.423
-0.083,-0.83,0.524,-0.793,-19.409,11.108
-0.102,-0.866,0.504,1.648,-18.799,10.437
-0.1,-0.88,0.504,1.221,-14.343,6.104
-0.093,-0.865,0.526,-0.427,-8.911,1.221
-0.093,-0.836,0.522,-2.197,-5.066,-3.113
-0.074,-0.836,0.531,-4.089,-1.831,-5.981
-0.049,-0.846,0.541,-4.944,0.793,-7.874
-0.042,-0.837,0.55,-4.7,1.221,-8.972
-0.047,-0.83,0.554,-4.517,-0.549,-8.301
-0.055,-0.829,0.536,-3.601,-3.723,-6.165
-0.076,-0.827,0.511,-1.16,-5.737,-3.601
-0.093,-0.833,0.495,2.563,-5.737,-1.404
-0.096,-0.853,0.502,6.287,-4.089,0.366
-0.103,-0.879,0.51,7.629,-2.869,0.732
-0.111,-0.916,0.517,7.263,-2.808,0.488
-0.119,-0.949,0.512,5.615,-3.357,-0.916
-0.13,-0.962,0.501,2.502,-3.479,-3.357
-0.136,-0.956,0.491,-0.977,-2.502,-6.897
-0.13,-0.942,0.495,-2.991,0.0,-10.193
-0.109,-0.926,0.503,-4.089,1.709,-12.268
-0.089,-0.907,0.506,-5.127,1.526,-12.146
-0.084,-0.895,0.514,-5.249,0.305,-9.766
-0.086,-0.893,0.52,-4.7,-1.587,-5.737
-0.087,-0.898,0.504,-3.296,-3.662,-2.38
-0.092,-0.899,0.5,-1.648,-4.089,0.427
-0.091,-0.899,0.502,-0.671,-3.357,2.014
-0.081,-0.896,0.515,-0.244,-1.892,2.869
-0.075,-0.897,0.525,-0.488,-1.038,2.869
-0.067,-0.892,0.528,-2.014,-0.671,1.221
-0.067,-0.88,0.529,-3.723,-0.916,-1.221
-0.069,-0.867,0.532,-4.15,-0.488,-2.991
-0.068,-0.864,0.536,-3.052,-0.244,-3.54
-0.068,-0.874,0.54,-2.502,-0.671,-3.845
-0.08,-0.88,0.541,-3.601,-1.892,-4.15
-0.099,-0.868,0.519,-4.456,-3.723,-4.944
-0.112,-0.854,0.495,-3.296,-4.211,-5.249
-0.11,-0.848,0.491,-1.038,-2.869,-4.333
-0.097,-0.85,0.492,1.099,-0.854,-3.235
-0.083,-0.864,0.492,2.93,0.122,-1.77
-0.078,-0.875,0.49,4.272,-0.244,0.061
-0.083,-0.887,0.484,4.883,-1.038,0.793
-0.086,-0.9,0.473,5.798,-1.77,1.099
-0.086,-0.913,0.476,5.249,-1.221,0.732
-0.081,-0.921,0.484,3.662,-0.549,-0.427
-0.076,-0.92,0.487,1.221,-0.854,-1.831
-0.078,-0.905,0.483,-0.854,-1.526,-3.418
-0.076,-0.882,0.472,-1.953,-2.136,-4.883
-0.068,-0.881,0.468,-1.282,-1.77,-4.578
-0.063,-0.883,0.479,-1.343,-0.244,-4.395
-0.062,-0.87,0.491,-1.953,0.488,-4.639
-0.061,-0.852,0.495,-1.648,0.366,-4.578
-0.069,-0.849,0.502,-0.305,-0.427,-3.54
-0.083,-0.858,0.503,0.244,-1.77,-2.197
-0.087,-0.871,0.491,0.427,-2.563,-1.16
-0.077,-0.879,0.486,0.916,-1.953,-0.977
-0.063,-0.87,0.48,1.343,-0.732,-1.465
-0.052,-0.86,0.487,1.77,0.183,-1.831
-0.047,-0.863,0.498,2.197,0.122,-1.709
-0.045,-0.87,0.502,2.869,-1.404,-1.831
-0.052,-0.883,0.498,4.517,-3.784,-1.587
-0.065,-0.903,0.495,4.7,-5.92,-0.977
-0.086,-0.922,0.486,2.563,-7.751,-1.587
-0.1,-0.93,0.47,0.732,-7.996,-2.991
-0.102,-0.93,0.463,-0.61,-6.592,-4.333
-0.1,-0.928,0.471,-2.258,-4.028,-4.944
0.837,2.077,-0.139,-23.315,10.376,1.465
1.04,2.45,-0.466,-23.437,11.902,-38.696
1.385,2.838,-0.809,-8.118,16.968,-112.366
1.937,3.304,-1.154,39.856,30.09,-201.965
2.417,3.782,-1.329,88.928,62.744,-283.081
2.526,4.0,-1.2,109.07,100.769,-351.868
2.17,3.911,-0.828,105.347,106.445,-427.124
1.483,3.591,-0.427,110.046,45.837,-508.85
0.695,3.451,-0.22,130.981,-70.984,-603.455
0.054,3.299,-0.136,170.105,-211.243,-681.396
-0.378,3.146,-0.185,234.314,-345.276,-710.632
-1.54,3.164,-0.348,313.416,-446.411,-726.685
-3.437,2.143,-0.24,427.551,-460.449,-739.929
-4.0,0.039,-0.211,400.635,-460.083,-640.93
-4.0,-2.65,-1.509,278.931,-428.711,-451.599
-4.0,-4.0,-2.308,173.706,-290.649,-347.961
-4.0,-4.0,-1.563,31.738,-93.872,-333.008
-3.429,-4.0,-1.08,-152.039,76.599,-423.157
-2.231,-3.981,-1.12,-285.706,155.884,-529.785
-1.174,-1.896,-1.036,-313.354,175.354,-522.217
-0.317,-0.135,-0.617,-232.666,186.462,-428.101
-0.467,0.664,0.911,-151.123,222.656,-281.311
-0.645,0.225,1.741,-106.14,156.372,-130.798
-0.36,-0.554,1.531,-10.742,-18.311,-17.273
-0.733,-0.939,0.894,99.243,-163.269,21.057
-0.94,-1.179,0.339,187.378,-239.624,17.09
-0.918,-1.477,-0.022,219.788,-249.146,14.404
-0.775,-1.719,0.029,211.975,-208.862,19.348
-0.74,-1.969,0.314,180.664,-154.48,31.677
-0.861,-2.118,0.39,121.521,-109.314,37.231
-0.836,-2.072,0.437,42.053,-66.101,27.1
-0.613,-1.872,0.551,-31.982,-26.55,0.061
-0.467,-1.428,0.404,-84.106,-5.127,-37.842
-0.334,-0.939,0.229,-113.647,15.503,-64.636
-0.17,-0.63,0.267,-123.291,45.044,-68.359
-0.051,-0.533,0.397,-110.657,69.275,-55.786
0.031,-0.628,0.596,-82.581,74.463,-41.992
0.052,-0.489,0.627,-52.002,57.19,-34.851
0.183,-0.612,0.702,-31.067,33.203,-15.381
0.109,-0.794,0.696,-14.221,7.446,-4.028
-0.057,-0.782,0.591,-0.549,-19.836,1.648
-0.144,-0.814,0.542,1.587,-33.875,7.446
-0.174,-0.977,0.623,-0.122,-38.391,9.583
-0.286,-1.027,0.583,1.648,-44.861,2.808
-0.376,-0.945,0.552,1.709,-48.889,-5.554
-0.461,-0.941,0.505,-1.892,-42.603,-5.798
-0.466,-0.987,0.577,-5.066,-26.367,-1.282
-0.461,-1.009,0.642,-7.141,-14.343,3.174
-0.448,-0.972,0.668,-8.667,-7.507,2.991
-0.431,-0.924,0.629,-10.498,-4.089,1.099
-0.394,-0.866,0.581,-12.756,0.366,-0.183
-0.353,-0.829,0.536,-13.489,7.568,1.648
-0.288,-0.82,0.547,-11.597,17.151,4.761
-0.228,-0.836,0.582,-8.85,23.743,6.653
-0.156,-0.827,0.603,-6.287,23.01,4.7
-0.095,-0.803,0.603,-5.432,16.785,3.052
-0.057,-0.773,0.578,-5.31,7.507,2.563
-0.073,-0.759,0.522,-4.639,-1.77,4.211
-0.125,-0.784,0.48,-2.319,-6.47,7.385
-0.156,-0.836,0.476,0.305,-6.104,8.484
-0.171,-0.87,0.494,2.136,-4.089,5.554
-0.186,-0.872,0.52,4.761,-2.014,0.916
-0.179,-0.879,0.532,5.493,-0.366,-2.686
-0.162,-0.888,0.541,2.563,0.305,-4.028
-0.179,-0.886,0.552,-0.977,0.549,-4.517
-0.194,-0.88,0.545,-3.601,0.427,-5.188
-0.194,-0.874,0.53,-4.639,0.671,-5.676
-0.19,-0.86,0.525,-4.7,1.404,-5.981
-0.184,-0.844,0.52,-4.089,1.648,-6.348
-0.182,-0.839,0.513,-2.747,1.526,-5.615
-0.18,-0.847,0.513,-1.587,0.793,-3.967
-0.18,-0.859,0.505,-0.488,-0.427,-2.075
-0.19,-0.873,0.505,1.282,-2.014,-0.671
-0.21,-0.884,0.509,3.113,-3.235,0.0
-0.229,-0.897,0.512,5.066,-4.028,0.671
-0.249,-0.919,0.517,7.141,-4.089,2.38
-0.252,-0.945,0.512,7.812,-3.113,4.15
-0.243,-0.959,0.515,5.31,-0.61,5.005
-0.234,-0.949,0.527,0.916,2.258,3.54
-0.225,-0.918,0.532,-3.601,4.456,0.61
-0.208,-0.884,0.532,-7.568,6.653,-2.136
-0.177,-0.855,0.533,-10.62,8.362,-3.845
-0.145,-0.824,0.533,-12.268,8.911,-4.822
-0.128,-0.791,0.536,-11.902,8.545,-5.188
-0.114,-0.768,0.541,-9.949,6.836,-4.7
-0.11,-0.762,0.537,-7.507,3.601,-3.113
-0.12,-0.773,0.525,-4.028,-0.122,-1.343
-0.137,-0.809,0.517,-0.61,-2.93,0.244
-0.152,-0.843,0.517,1.038,-4.333,0.977
-0.171,-0.864,0.526,2.014,-4.883,0.244
-0.192,-0.868,0.53,3.235,-4.944,-1.038
-0.205,-0.88,0.518,4.211,-4.517,-0.793
-0.212,-0.901,0.511,3.113,-2.014,-0.305
-0.213,-0.907,0.513,-0.183,1.465,-1.404
-0.204,-0.891,0.502,-2.258,4.456,-4.639
-0.186,-0.873,0.495,-2.197,6.714,-7.202
-0.17,-0.867,0.501,-1.892,9.216,-7.141
-0.154,-0.869,0.516,-2.38,9.338,-5.676
-0.152,-0.866,0.517,-1.526,6.531,-4.395
-0.16,-0.864,0.5,-0.061,2.991,-2.93
-0.167,-0.866,0.486,1.221,0.305,-0.671
-0.172,-0.873,0.476,2.075,-1.404,1.526
-0.172,-0.873,0.476,3.052,-2.258,3.052
-0.17,-0.885,0.48,5.127,-2.197,3.418
-0.155,-0.913,0.486,5.066,-2.319,3.723
-0.147,-0.929,0.493,1.526,-2.38,2.991
-0.152,-0.912,0.496,-2.93,-2.686,0.977
-0.153,-0.883,0.487,-5.737,-2.991,-1.038
-0.156,-0.857,0.487,-7.385,-2.441,-1.831
-0.156,-0.836,0.498,-8.24,-1.099,-2.38
-0.15,-0.816,0.508,-7.568,0.122,-2.93
-0.152,-0.801,0.516,-5.249,0.305,-2.747
-0.149,-0.802,0.517,-2.686,0.061,-1.831
-0.139,-0.815,0.514,-1.221,-0.061,-0.732
-0.133,-0.83,0.515,0.0,-0.366,0.122
-0.132,-0.839,0.513,1.038,-1.038,-0.244
-0.136,-0.845,0.509,2.136,-2.014,-0.732
-0.139,-0.855,0.511,2.625,-3.357,-0.977
-0.141,-0.872,0.514,2.747,-4.211,-0.732
1.059,2.036,-0.346,-32.532,43.03,-3.784
1.239,2.347,-0.494,-16.174,35.461,-48.218
1.526,2.758,-0.71,23.193,29.358,-113.342
1.8,3.245,-0.911,55.481,24.597,-191.65
2.142,3.652,-1.071,74.341,24.109,-283.081
2.264,3.839,-1.018,85.693,29.724,-375.488
1.967,3.79,-0.727,111.328,26.489,-465.576
1.29,3.702,-0.393,146.606,-12.695,-554.565
0.49,3.416,-0.11,181.946,-95.093,-625.61
-0.122,2.84,-0.055,208.679,-197.754,-676.025
-0.365,1.988,0.07,230.53,-310.425,-702.759
-0.886,1.752,-0.112,242.737,-440.43,-740.234
-2.868,1.392,-0.441,317.749,-492.798,-780.579
-3.983,-0.039,0.03,317.139,-469.971,-731.323
-4.0,-2.584,-1.237,160.767,-450.989,-542.419
-4.0,-4.0,-2.223,29.541,-303.04,-373.535
-4.0,-4.0,-1.841,-99.243,-77.698,-305.603
-3.737,-4.0,-1.253,-234.192,123.84,-412.72
-2.295,-3.467,-0.805,-333.74,220.398,-552.734
-1.101,-1.304,-0.537,-311.829,207.336,-530.701
-0.518,0.147,0.087,-187.012,186.829,-386.414
-0.847,0.613,1.216,-96.802,184.448,-177.429
-0.663,-0.202,1.604,-34.973,93.262,39.49
-0.388,-1.083,1.468,51.697,-64.636,174.866
-0.627,-1.485,0.731,139.221,-197.083,176.758
-0.78,-1.388,0.174,201.843,-252.441,128.906
-0.753,-1.372,0.028,210.937,-229.736,89.172
-0.696,-1.482,0.01,182.922,-174.316,73.608
-0.639,-1.699,0.191,131.042,-103.882,70.801
-0.547,-1.813,0.49,67.871,-39.246,56.091
-0.373,-1.695,0.695,7.996,-2.197,21.24
-0.224,-1.33,0.615,-41.26,8.423,-21.973
-0.164,-0.887,0.414,-75.317,14.282,-51.208
-0.152,-0.577,0.305,-90.698,30.884,-54.626
-0.099,-0.534,0.398,-87.402,54.626,-40.466
0.062,-0.667,0.664,-65.796,66.589,-26.917
0.081,-0.659,0.775,-35.522,49.072,-27.039
0.104,-0.531,0.677,-11.353,13.794,-23.01
0.083,-0.661,0.654,-0.122,-11.963,-2.502
-0.063,-0.763,0.509,8.301,-29.846,16.113
-0.165,-0.851,0.43,16.418,-34.973,28.381
-0.196,-0.965,0.471,24.414,-28.137,26.123
-0.207,-1.021,0.492,26.611,-21.667,13.489
-0.227,-0.99,0.485,20.508,-15.808,-0.977
-0.207,-1.012,0.547,9.399,-9.094,-8.24
-0.225,-1.021,0.576,-1.038,-6.714,-13.245
-0.237,-1.036,0.566,-11.78,-6.042,-16.785
-0.26,-1.01,0.572,-21.606,-7.385,-22.278
-0.239,-0.942,0.557,-25.391,-9.094,-25.94
-0.257,-0.865,0.502,-26.367,-8.972,-24.414
-0.255,-0.797,0.484,-25.33,-3.662,-16.602
-0.229,-0.783,0.479,-22.949,3.357,-5.676
-0.192,-0.79,0.499,-17.639,10.071,2.747
-0.155,-0.789,0.511,-11.536,13.062,6.47
-0.121,-0.793,0.528,-7.08,13.0,6.165
-0.104,-0.815,0.545,-3.906,10.742,2.808
-0.075,-0.858,0.578,-2.808,5.676,-2.808
-0.076,-0.833,0.545,-5.371,-2.075,-8.362
-0.103,-0.848,0.535,-8.545,-7.08,-10.132
-0.135,-0.86,0.503,-9.827,-10.254,-11.719
-0.179,-0.864,0.437,-11.475,-10.437,-12.085
-0.208,-0.887,0.457,-14.404,-3.357,-12.634
-0.173,-0.886,0.504,-15.259,4.883,-14.526
-0.119,-0.853,0.544,-13.428,9.033,-15.991
-0.099,-0.803,0.557,-11.292,8.789,-13.916
-0.103,-0.776,0.55,-9.277,6.592,-8.24
-0.116,-0.785,0.541,-5.676,4.761,-2.93
-0.117,-0.806,0.541,-0.671,3.052,-0.244
-0.117,-0.822,0.543,4.272,1.16,0.671
-0.122,-0.84,0.538,8.057,-1.892,0.916
-0.13,-0.879,0.532,9.521,-4.517,0.732
-0.146,-0.931,0.534,7.935,-6.47,0.305
-0.184,-0.969,0.532,5.188,-7.996,-1.526
-0.211,-0.994,0.527,1.282,-8.484,-4.517
-0.205,-1.001,0.518,-3.784,-7.324,-8.545
-0.19,-0.973,0.516,-9.216,-5.249,-12.268
-0.168,-0.927,0.535,-13.306,-3.418,-13.733
-0.152,-0.876,0.545,-14.648,-2.869,-12.39
-0.171,-0.828,0.522,-12.695,-3.357,-9.216
-0.181,-0.822,0.511,-8.24,-0.916,-4.822
-0.151,-0.844,0.541,-4.761,3.601,-1.465
-0.116,-0.854,0.563,-1.587,5.432,0.183
-0.108,-0.856,0.565,-0.366,4.578,1.465
-0.103,-0.868,0.576,-1.892,3.052,4.089
-0.103,-0.882,0.579,-4.761,0.977,6.042
-0.112,-0.875,0.581,-7.202,-1.282,5.188
-0.126,-0.845,0.571,-7.935,-3.174,2.136
-0.131,-0.828,0.569,-7.507,-3.967,-0.549
-0.143,-0.825,0.559,-7.568,-3.967,-2.808
-0.153,-0.816,0.55,-7.751,-4.028,-5.005
-0.162,-0.811,0.539,-5.92,-3.418,-7.019
-0.169,-0.817,0.53,-2.136,-1.526,-7.324
-0.17,-0.828,0.531,0.427,0.854,-5.737
-0.165,-0.843,0.533,1.526,3.113,-3.54
-0.158,-0.849,0.535,2.136,4.639,-2.686
-0.151,-0.846,0.536,2.563,4.944,-2.502
-0.147,-0.839,0.535,2.93,3.845,-2.563
-0.141,-0.831,0.532,3.357,2.197,-2.014
-0.133,-0.828,0.524,4.333,0.305,-1.038
-0.129,-0.833,0.515,5.859,-1.404,0.549
-0.131,-0.852,0.506,7.935,-2.258,1.953
-0.133,-0.878,0.498,8.057,-2.686,2.625
-0.138,-0.894,0.494,5.981,-3.174,0.854
-0.145,-0.898,0.48,4.028,-3.113,-2.319
-0.144,-0.893,0.474,1.709,-2.258,-4.7
-0.146,-0.886,0.473,-1.77,-0.549,-5.981
-0.138,-0.878,0.478,-4.761,1.038,-6.714
-0.126,-0.867,0.493,-6.47,1.953,-6.775
-0.124,-0.843,0.504,-6.47,1.343,-6.836
-0.114,-0.832,0.517,-5.493,0.244,-5.737
-0.103,-0.832,0.524,-4.517,-1.526,-4.028
-0.103,-0.838,0.531,-3.723,-3.601,-2.075
-0.111,-0.845,0.533,-3.052,-5.615,-1.099
-0.124,-0.849,0.535,-2.869,-7.568,-0.549
-0.137,-0.854,0.534,-1.892,-9.155,-0.916
-0.15,-0.864,0.532,-1.648,-8.911,-1.709
-0.165,-0.865,0.53,-2.38,-7.202,-2.93
-0.16,-0.862,0.532,-4.089,-4.578,-5.005
-0.145,-0.855,0.544,-5.127,-1.587,-6.958
1.085,1.931,-0.301,37.415,63.171,-22.949
1.247,2.56,-0.51,64.636,63.782,-70.557
1.615,3.217,-0.802,103.638,55.237,-125.061
2.031,3.729,-1.016,115.234,49.438,-186.462
2.125,3.942,-1.029,83.679,56.824,-268.433
1.825,3.848,-0.851,41.26,52.734,-374.451
1.406,3.763,-0.636,44.678,11.353,-495.422
0.992,3.791,-0.414,81.726,-63.11,-618.347
0.478,3.913,-0.202,133.057,-157.837,-727.112
-0.393,4.0,-0.228,210.693,-258.789,-812.805
-1.677,3.957,-0.406,321.777,-328.735,-878.54
-2.54,3.427,-0.677,403.564,-381.348,-903.381
-3.564,2.167,-0.935,440.796,-443.42,-850.769
-4.0,-0.135,-0.742,466.675,-462.891,-705.261
-4.0,-3.675,-1.563,368.103,-453.552,-462.402
-4.0,-4.0,-2.84,165.649,-381.226,-264.282
-4.0,-4.0,-2.871,-41.199,-175.293,-223.938
-3.991,-4.0,-2.277,-258.911,80.383,-361.877
-2.662,-3.992,-1.751,-432.678,225.098,-505.371
-1.511,-2.064,-1.067,-467.712,248.535,-530.457
-0.848,-0.158,-0.7,-359.863,216.309,-458.435
-0.77,1.008,0.091,-199.646,205.994,-295.959
-0.981,1.015,1.323,-133.484,217.529,-82.703
-0.572,-0.281,1.669,-54.26,125.732,78.308
-0.101,-1.273,1.671,56.152,-9.216,142.212
-0.479,-1.375,1.187,147.156,-130.31,117.493
-0.679,-1.222,0.496,189.087,-205.017,77.881
-0.465,-1.117,0.131,175.842,-203.247,61.768
-0.357,-1.206,0.095,154.968,-154.48,72.205
-0.469,-1.3,0.163,134.949,-99.792,86.426
-0.435,-1.409,0.266,106.201,-51.086,86.609
-0.285,-1.412,0.509,70.068,-11.475,64.697
-0.112,-1.371,0.661,31.677,7.263,32.471
-0.053,-1.178,0.536,-0.366,4.333,-3.052
-0.076,-0.868,0.269,-24.963,5.798,-25.818
-0.073,-0.724,0.195,-42.603,27.832,-27.832
-0.071,-0.798,0.291,-46.997,58.289,-20.569
0.077,-0.885,0.62,-38.086,74.463,-20.386
0.148,-0.893,0.793,-25.757,55.969,-29.48
0.164,-0.6,0.664,-18.311,14.16,-33.142
0.18,-0.633,0.644,-18.494,-18.005,-12.207
-0.038,-0.751,0.506,-14.709,-40.161,7.08
-0.208,-0.839,0.428,-4.089,-52.124,16.846
-0.272,-0.902,0.464,7.202,-50.354,10.681
-0.254,-0.946,0.517,15.076,-47.18,-0.244
-0.316,-0.994,0.527,16.785,-46.021,-10.437
-0.392,-0.984,0.489,13.367,-44.861,-17.517
-0.475,-0.972,0.38,5.981,-38.696,-17.639
-0.477,-1.043,0.431,0.427,-20.264,-13.794
-0.456,-1.086,0.473,-0.793,-4.333,-13.55
-0.387,-1.018,0.495,-2.258,4.456,-14.893
-0.331,-0.968,0.494,-6.287,8.301,-12.573
-0.307,-0.907,0.419,-10.071,9.277,-6.897
-0.278,-0.873,0.382,-12.817,13.184,2.38
-0.228,-0.907,0.404,-11.353,18.799,9.705
-0.177,-0.903,0.403,-6.836,20.142,10.498
-0.121,-0.898,0.446,-4.028,18.677,8.667
-0.054,-0.879,0.487,-3.967,13.245,5.737
-0.024,-0.839,0.475,-3.418,2.319,4.028
-0.063,-0.837,0.433,-0.732,-7.935,4.517
-0.117,-0.881,0.423,-0.793,-12.939,5.005
-0.155,-0.933,0.432,-2.808,-14.038,1.282
-0.183,-0.957,0.44,-3.906,-13.794,-4.944
-0.207,-0.948,0.449,-5.981,-12.39,-11.108
-0.22,-0.929,0.452,-8.057,-10.681,-14.893
-0.225,-0.918,0.454,-8.545,-8.179,-14.099
-0.23,-0.914,0.463,-8.301,-5.493,-10.254
-0.236,-0.907,0.459,-7.446,-4.272,-5.554
-0.242,-0.897,0.444,-5.249,-3.906,-1.77
-0.24,-0.899,0.436,-1.892,-3.113,1.099
-0.227,-0.91,0.442,1.526,-2.197,3.113
-0.214,-0.921,0.448,4.089,-2.686,4.211
-0.208,-0.933,0.45,5.981,-4.211,5.066
-0.207,-0.957,0.441,6.226,-6.226,5.981
-0.208,-0.973,0.419,4.639,-7.385,6.042
-0.211,-0.983,0.415,1.526,-6.531,3.967
-0.211,-0.983,0.41,-1.648,-4.578,0.122
-0.213,-0.958,0.403,-4.761,-2.747,-3.357
-0.198,-0.94,0.435,-7.385,-0.122,-5.066
-0.186,-0.917,0.449,-8.667,0.977,-4.456
-0.188,-0.894,0.439,-8.85,0.122,-1.77
-0.201,-0.887,0.44,-8.179,0.488,1.892
-0.201,-0.897,0.447,-6.897,2.197,4.15
-0.193,-0.906,0.466,-5.798,3.906,4.822
-0.181,-0.907,0.484,-5.371,4.089,3.54
-0.165,-0.91,0.498,-5.737,2.625,2.38
-0.159,-0.907,0.501,-7.324,0.244,1.709
-0.165,-0.898,0.494,-8.179,-2.441,1.099
-0.172,-0.881,0.473,-8.179,-4.211,0.61
-0.179,-0.874,0.46,-7.874,-3.967,0.549
-0.175,-0.875,0.461,-7.507,-2.197,0.488
-0.16,-0.872,0.455,-6.714,-0.488,-0.183
-0.155,-0.863,0.443,-4.822,0.549,-1.221
-0.152,-0.857,0.443,-3.479,1.892,-1.709
-0.146,-0.866,0.453,-2.319,2.502,-1.526
-0.148,-0.88,0.459,-1.282,1.892,-1.404
-0.153,-0.889,0.453,-0.549,0.061,-1.038
-0.157,-0.897,0.44,-0.244,-1.587,-0.488
-0.161,-0.902,0.427,-0.122,-2.502,0.183
-0.167,-0.911,0.428,0.0,-2.197,0.61
-0.165,-0.917,0.432,0.122,-1.587,0.61
-0.153,-0.924,0.433,0.183,-1.465,0.671
-0.146,-0.933,0.439,-0.977,-1.526,0.793
-0.154,-0.938,0.443,-3.174,-2.136,0.977
-0.172,-0.938,0.437,-5.188,-3.54,-0.122
-0.183,-0.932,0.43,-7.019,-4.028,-2.197
-0.182,-0.918,0.439,-8.728,-3.296,-3.296
-0.181,-0.9,0.452,-9.705,-2.441,-3.296
-0.187,-0.885,0.454,-9.827,-2.197,-2.686
-0.181,-0.88,0.452,-8.911,-1.526,-1.709
-0.162,-0.876,0.454,-8.179,-0.244,-1.282
-0.144,-0.868,0.465,-6.958,0.854,-1.465
-0.13,-0.86,0.476,-5.249,0.793,-1.709
-0.133,-0.854,0.478,-4.211,-0.732,-1.709
-0.147,-0.858,0.474,-2.991,-2.258,-1.099
-0.158,-0.871,0.471,-2.319,-3.052,-0.183
-0.172,-0.883,0.472,-2.075,-2.991,0.183
-0.185,-0.899,0.469,-1.587,-2.563,-0.061
-0.188,-0.913,0.461,-2.38,-1.648,-1.099
0.801,2.229,0.155,1.038,-3.479,34.79
0.876,2.77,-0.086,48.645,-11.658,32.837
1.061,3.198,-0.294,68.42,-16.418,12.756
1.334,3.363,-0.592,83.496,-5.005,-42.725
1.613,3.47,-0.879,73.181,22.034,-129.089
1.965,3.637,-1.061,69.824,56.519,-243.347
2.251,3.923,-1.056,97.534,89.966,-366.333
2.061,4.0,-0.869,139.282,106.873,-468.689
1.404,3.971,-0.571,163.574,81.97,-544.617
0.736,3.691,-0.27,184.143,8.301,-605.469
0.266,3.343,-0.059,216.309,-106.628,-656.433
-0.388,3.129,0.263,261.658,-250.977,-696.655
-2.529,3.039,0.581,368.591,-386.902,-746.216
-3.902,1.229,0.081,483.887,-460.937,-744.446
-4.0,-1.247,-1.2,340.759,-490.112,-597.534
-4.0,-3.932,-1.955,199.646,-380.005,-434.998
-4.0,-4.0,-2.417,111.511,-230.286,-332.825
-3.998,-4.0,-2.324,-9.155,-54.932,-344.788
-2.65,-4.0,-1.549,-137.878,124.695,-466.797
-1.484,-3.246,-1.013,-200.012,189.575,-516.907
-0.521,-1.472,-0.788,-173.767,176.27,-440.063
-0.547,-0.152,0.06,-111.084,184.265,-283.936
-0.991,0.088,0.943,-102.783,175.781,-102.966
-0.573,-0.79,1.15,-36.621,60.913,18.372
-0.412,-1.254,0.753,71.289,-70.496,46.997
-0.646,-1.187,0.07,161.926,-152.344,23.132
-0.573,-1.237,-0.074,200.867,-157.532,8.362
-0.455,-1.566,0.031,194.702,-126.16,14.038
-0.464,-1.923,0.214,161.011,-91.98,20.996
-0.515,-2.038,0.438,103.577,-59.998,17.761
-0.417,-1.986,0.624,32.532,-41.077,3.174
-0.302,-1.735,0.518,-36.133,-39.185,-21.301
-0.245,-1.276,0.21,-87.341,-38.94,-48.279
-0.238,-0.877,0.003,-111.389,-17.639,-62.5
-0.206,-0.708,0.078,-114.319,21.79,-59.387
-0.081,-0.709,0.26,-100.769,54.26,-51.086
0.063,-0.722,0.43,-75.317,65.979,-46.936
0.141,-0.778,0.62,-48.706,57.983,-44.495
0.099,-0.68,0.625,-28.992,33.203,-38.025
0.102,-0.806,0.631,-19.531,7.385,-17.334
0.021,-0.931,0.622,-12.085,-14.893,-3.174
-0.094,-1.004,0.523,-4.333,-34.546,3.479
-0.181,-1.054,0.504,-0.671,-41.931,1.465
-0.217,-1.132,0.494,-0.916,-41.626,-3.845
-0.265,-1.083,0.441,-5.371,-37.903,-10.498
-0.252,-1.074,0.461,-11.536,-28.32,-12.695
-0.265,-1.021,0.45,-17.273,-17.822,-14.404
-0.222,-0.972,0.49,-20.63,-8.179,-12.695
-0.19,-0.936,0.544,-22.339,-2.136,-10.925
-0.167,-0.87,0.554,-20.508,-1.831,-10.376
-0.139,-0.821,0.572,-16.541,-3.296,-7.568
-0.1,-0.81,0.586,-11.414,-6.409,-2.075
-0.087,-0.828,0.575,-4.639,-12.573,3.479
-0.074,-0.856,0.575,1.892,-19.287,6.165
-0.085,-0.863,0.545,6.714,-25.94,5.798
-0.143,-0.85,0.499,9.46,-28.992,4.395
-0.175,-0.89,0.507,9.338,-24.902,5.432
-0.162,-0.937,0.503,5.676,-17.944,6.165
-0.143,-0.953,0.505,1.648,-11.169,4.211
-0.134,-0.954,0.503,-1.77,-5.188,-0.61
-0.12,-0.94,0.475,-6.531,0.122,-5.92
-0.097,-0.901,0.474,-11.597,6.653,-10.071
-0.055,-0.879,0.502,-14.221,11.658,-11.414
-0.02,-0.826,0.544,-13.733,11.78,-11.353
-0.012,-0.811,0.526,-10.864,5.737,-7.874
-0.034,-0.791,0.5,-5.92,-1.16,-3.723
-0.058,-0.795,0.483,-0.671,-6.104,1.465
-0.091,-0.818,0.458,4.944,-9.399,4.517
-0.137,-0.86,0.434,11.108,-10.925,6.165
-0.169,-0.92,0.424,14.954,-9.705,5.92
-0.159,-0.987,0.445,15.564,-6.165,4.517
-0.136,-1.014,0.456,14.221,-4.333,1.282
-0.134,-1.016,0.459,11.353,-4.15,-1.465
-0.129,-1.027,0.439,7.019,-4.211,-2.808
-0.133,-1.036,0.415,1.404,-3.479,-3.845
-0.137,-1.017,0.406,-4.089,-0.61,-5.676
-0.118,-0.977,0.412,-8.179,3.113,-7.446
-0.086,-0.938,0.443,-9.155,5.615,-7.019
-0.066,-0.913,0.473,-9.399,5.188,-5.005
-0.061,-0.897,0.485,-9.888,1.526,-2.136
-0.072,-0.893,0.494,-9.277,-2.625,0.549
-0.089,-0.892,0.496,-7.385,-6.104,2.197
-0.094,-0.893,0.502,-5.615,-8.728,2.625
-0.101,-0.891,0.498,-4.822,-10.803,3.052
-0.12,-0.894,0.497,-4.333,-11.719,3.845
-0.142,-0.908,0.493,-4.333,-10.681,4.883
-0.168,-0.922,0.484,-5.554,-7.751,4.761
-0.182,-0.92,0.477,-8.545,-3.662,1.892
-0.178,-0.905,0.464,-10.376,1.465,-2.991
-0.157,-0.878,0.459,-10.132,7.568,-7.507
-0.118,-0.856,0.471,-9.216,13.123,-10.62
-0.078,-0.834,0.485,-8.484,16.174,-10.559
-0.055,-0.819,0.488,-6.47,15.32,-8.667
-0.047,-0.815,0.475,-2.747,11.902,-5.798
-0.039,-0.827,0.465,1.709,7.69,-2.747
-0.039,-0.847,0.46,5.92,3.723,-0.122
-0.042,-0.879,0.458,8.484,-0.488,1.831
-0.05,-0.917,0.457,8.179,-4.395,3.723
-0.064,-0.945,0.451,6.47,-7.874,4.089
-0.088,-0.958,0.444,4.822,-10.62,2.808
-0.123,-0.959,0.434,5.066,-10.681,1.221
-0.143,-0.982,0.422,4.456,-7.446,-0.183
-0.138,-0.99,0.435,-1.221,-2.441,-2.38
-0.125,-0.964,0.451,-6.836,2.93,-5.981
-0.108,-0.922,0.447,-8.972,6.287,-10.132
-0.09,-0.894,0.46,-9.827,8.911,-10.986
-0.073,-0.884,0.483,-10.803,9.888,-9.399
-0.048,-0.882,0.495,-10.62,8.118,-7.324
-0.051,-0.87,0.49,-9.583,3.967,-5.798
-0.068,-0.857,0.482,-7.996,0.0,-4.15
-0.071,-0.863,0.473,-6.348,-3.235,-2.563
-0.075,-0.877,0.476,-4.15,-4.944,-1.526
-0.091,-0.887,0.482,-1.953,-6.165,-1.465
-0.099,-0.897,0.479,-0.488,-7.324,-1.77
-0.105,-0.906,0.474,0.366,-7.874,-1.709
-0.107,-0.924,0.474,-0.061,-7.324,-1.343
-0.116,-0.934,0.467,-1.892,-6.836,-1.831
-0.13,-0.929,0.447,-3.235,-6.042,-3.784
-0.134,-0.914,0.425,-3.418,-3.418,-5.859
1.077,2.673,-0.353,68.176,7.996,10.254
1.314,3.363,-0.684,105.896,-17.761,-5.798
1.553,3.727,-1.028,89.844,-32.776,-65.308
1.785,3.516,-1.332,26.855,-28.687,-161.56
1.861,3.257,-1.389,-17.7,-10.193,-266.296
1.856,3.214,-1.19,17.761,4.333,-381.897
1.592,3.208,-0.776,110.168,-5.981,-492.493
0.982,3.224,-0.443,176.208,-60.608,-561.096
0.188,2.937,-0.159,201.111,-151.978,-578.43
-0.641,2.294,0.052,224.06,-260.742,-574.463
-1.212,1.021,0.117,254.517,-379.395,-546.387
-1.64,-0.214,-0.106,270.569,-488.098,-498.718
-2.709,-1.256,-0.77,283.508,-508.545,-479.37
-3.457,-2.605,-0.804,250.488,-406.494,-475.769
-3.362,-3.638,-0.757,86.365,-292.053,-415.771
-3.45,-4.0,-0.981,-40.649,-163.391,-384.949
-2.891,-3.862,-0.917,-89.783,-45.532,-398.437
-2.04,-2.67,-0.755,-102.356,36.072,-435.303
-1.115,-1.25,-0.576,-39.917,79.468,-447.144
-0.441,-0.552,0.061,73.914,93.872,-373.718
-0.204,-0.609,0.741,156.128,59.692,-243.591
-0.103,-1.23,0.796,221.008,-54.871,-108.093
-0.289,-1.957,0.38,282.532,-191.345,-11.719
-0.776,-2.651,-0.057,303.223,-274.353,24.536
-1.331,-3.084,-0.414,255.615,-283.691,16.357
-1.449,-3.271,-0.52,152.039,-225.891,-10.559
-1.183,-3.073,-0.292,37.903,-130.249,-51.697
-0.833,-2.398,-0.053,-46.387,-40.527,-101.929
-0.462,-1.531,0.043,-104.37,24.109,-135.986
-0.09,-0.896,0.2,-139.648,70.801,-135.742
0.116,-0.518,0.431,-151.978,97.412,-111.45
0.243,-0.36,0.626,-142.029,97.595,-80.139
0.324,-0.311,0.683,-111.755,72.021,-58.716
0.246,-0.36,0.694,-67.871,37.659,-45.776
0.16,-0.378,0.7,-24.048,3.906,-31.799
0.168,-0.555,0.651,3.479,-30.701,-7.629
-0.026,-0.784,0.479,21.851,-56.58,13.611
-0.197,-1.027,0.458,37.964,-64.697,26.917
-0.32,-1.186,0.392,49.805,-63.232,26.123
-0.357,-1.236,0.317,51.27,-53.772,21.606
-0.341,-1.29,0.366,41.26,-33.936,19.104
-0.313,-1.349,0.395,22.339,-15.991,16.968
-0.322,-1.33,0.375,-3.052,-2.686,10.925
-0.306,-1.251,0.379,-25.818,9.888,1.953
-0.253,-1.137,0.378,-41.382,19.958,-7.141
-0.184,-1.01,0.377,-51.208,27.588,-13.611
-0.118,-0.899,0.403,-55.237,32.837,-16.418
-0.054,-0.819,0.43,-50.171,33.691,-15.503
-0.007,-0.767,0.442,-39.551,29.724,-11.536
0.037,-0.746,0.454,-29.907,22.583,-5.676
0.059,-0.742,0.464,-20.203,12.756,0.122
0.064,-0.748,0.456,-8.606,0.061,4.395
0.055,-0.77,0.441,1.038,-11.963,8.362
0.009,-0.824,0.437,7.935,-20.996,13.123
-0.043,-0.895,0.428,10.437,-26.123,17.883
-0.081,-0.953,0.404,8.911,-27.893,18.738
-0.108,-0.966,0.384,6.348,-24.78,14.16
-0.117,-0.941,0.391,2.991,-17.578,6.409
-0.108,-0.905,0.409,-0.366,-8.484,-1.77
-0.09,-0.879,0.423,-1.953,-0.732,-9.094
-0.062,-0.863,0.438,-3.479,5.554,-15.686
-0.035,-0.859,0.447,-4.578,9.399,-20.508
-0.01,-0.868,0.445,-4.211,9.949,-22.827
-0.004,-0.878,0.43,-3.479,7.446,-23.01
-0.016,-0.886,0.409,-2.625,3.418,-21.423
-0.031,-0.904,0.381,-1.16,-0.61,-17.273
-0.047,-0.929,0.366,0.488,-3.601,-11.841
-0.058,-0.942,0.355,2.197,-5.859,-7.08
-0.072,-0.945,0.342,5.432,-8.057,-3.662
-0.089,-0.942,0.344,9.46,-8.484,-1.16
-0.088,-0.941,0.367,13.306,-7.446,1.953
-0.079,-0.948,0.391,16.174,-7.08,5.432
-0.082,-0.971,0.405,18.188,-8.057,7.69
-0.088,-1.005,0.409,17.334,-8.972,7.935
-0.096,-1.032,0.407,12.756,-9.094,5.493
-0.103,-1.049,0.403,6.165,-7.507,0.854
-0.1,-1.046,0.403,-1.038,-4.578,-4.395
-0.098,-1.021,0.41,-8.301,-1.16,-8.972
-0.095,-0.995,0.423,-14.709,1.526,-12.695
-0.09,-0.972,0.416,-18.616,2.014,-14.526
-0.086,-0.958,0.403,-20.569,2.38,-13.672
-0.091,-0.939,0.402,-20.386,3.662,-11.597
-0.092,-0.926,0.407,-17.883,5.249,-9.827
-0.07,-0.924,0.422,-13.672,6.104,-7.874
-0.054,-0.917,0.433,-8.911,4.883,-5.676
-0.059,-0.904,0.438,-4.822,1.77,-3.601
-0.059,-0.911,0.433,-1.465,-1.892,-1.343
-0.07,-0.93,0.424,1.282,-4.578,1.221
-0.095,-0.95,0.414,3.235,-5.737,2.075
-0.111,-0.969,0.412,4.15,-4.7,1.038
-0.111,-0.982,0.423,3.296,-2.014,-1.282
-0.113,-0.975,0.433,1.648,0.732,-3.967
-0.112,-0.96,0.437,-0.427,2.441,-5.066
-0.108,-0.948,0.431,-2.075,3.54,-4.761
-0.097,-0.939,0.425,-2.441,4.211,-3.235
-0.086,-0.925,0.423,-1.953,4.272,-1.526
-0.074,-0.915,0.419,-0.61,3.601,-0.061
-0.065,-0.913,0.41,1.526,2.38,1.404
-0.057,-0.921,0.406,3.479,0.854,2.93
-0.049,-0.933,0.402,4.089,-0.854,4.211
-0.056,-0.931,0.395,3.174,-2.808,4.578
-0.072,-0.93,0.383,2.197,-4.089,4.15
-0.071,-0.93,0.378,1.221,-4.089,2.869
-0.069,-0.928,0.384,0.366,-2.93,0.977
-0.058,-0.924,0.389,-0.305,-2.014,-1.77
-0.042,-0.924,0.393,-1.404,-1.526,-3.845
-0.046,-0.918,0.405,-2.258,-1.465,-4.089
-0.062,-0.918,0.414,-2.747,-2.441,-3.662
-0.076,-0.931,0.408,-2.563,-3.479,-2.93
-0.088,-0.938,0.402,-2.747,-3.479,-1.831
-0.09,-0.94,0.403,-2.93,-2.441,-1.221
-0.073,-0.943,0.407,-3.052,-1.221,-1.526
-0.063,-0.934,0.416,-3.662,-0.122,-1.892
-0.054,-0.926,0.423,-4.15,0.488,-2.258
-0.041,-0.925,0.429,-4.333,0.122,-2.258
-0.04,-0.921,0.441,-3.967,-0.61,-2.075
-0.048,-0.914,0.444,-3.052,-2.441,-2.197
-0.061,-0.911,0.439,-2.563,-3.845,-2.563
-0.072,-0.908,0.435,-2.625,-4.578,-2.686
1.072,1.447,0.125,15.747,56.519,25.085
1.04,1.548,0.087,26.917,65.674,13.855
0.941,1.781,0.104,38.147,66.65,-1.648
0.867,2.059,0.129,61.218,63.538,-17.761
1.001,2.43,-0.01,92.712,53.65,-36.499
1.138,2.865,-0.146,103.577,33.752,-86.67
1.364,3.214,-0.346,106.567,17.456,-186.768
1.577,3.516,-0.55,110.352,6.287,-314.331
1.518,3.707,-0.583,137.634,2.808,-432.983
1.041,3.699,-0.436,180.42,-2.319,-518.677
0.286,3.434,-0.243,210.693,-26.917,-575.867
-0.268,2.855,-0.155,240.295,-82.397,-615.173
-0.61,2.328,-0.036,277.222,-158.325,-657.104
-2.086,2.154,-0.101,359.985,-233.582,-737.366
-3.557,1.103,-0.24,494.141,-233.337,-837.402
-4.0,-0.608,-0.009,388.367,-233.521,-781.372
-4.0,-3.063,-0.463,219.727,-243.958,-639.954
-4.0,-4.0,-0.974,101.074,-213.013,-534.912
-4.0,-4.0,-1.47,-44.495,-142.212,-482.605
-3.729,-4.0,-1.76,-206.116,-28.809,-503.845
-2.836,-3.849,-1.425,-269.409,81.665,-523.132
-1.858,-1.953,-0.922,-246.643,151.855,-445.374
-0.947,-0.691,-0.317,-156.067,171.753,-290.466
-0.556,-0.204,0.475,-62.805,170.898,-121.826
-0.636,-0.255,1.237,-31.555,127.93,26.123
-0.493,-0.754,1.203,4.211,6.836,132.69
-0.609,-1.201,0.58,64.209,-110.718,164.795
-0.922,-1.449,-0.03,132.996,-153.87,129.883
-0.937,-1.462,-0.141,176.392,-128.418,77.698
-0.655,-1.492,-0.089,176.941,-76.111,41.321
-0.276,-1.654,0.224,144.409,-19.958,29.236
-0.119,-1.75,0.557,92.041,13.733,27.588
-0.186,-1.533,0.422,34.058,12.512,20.447
-0.184,-1.298,0.303,-17.761,13.489,9.644
-0.117,-1.092,0.271,-50.537,23.437,-7.751
-0.043,-0.903,0.3,-62.195,31.006,-26.978
0.061,-0.716,0.393,-59.998,33.203,-41.809
0.155,-0.65,0.447,-51.086,24.597,-44.861
0.162,-0.605,0.448,-38.269,8.606,-38.33
0.055,-0.619,0.356,-24.78,-6.348,-21.362
-0.012,-0.785,0.39,-14.465,-11.902,-3.418
-0.051,-0.96,0.462,-6.104,-16.174,5.493
-0.125,-1.005,0.45,0.854,-23.987,3.235
-0.165,-1.005,0.439,2.38,-28.259,-1.587
-0.183,-1.008,0.45,-1.892,-26.306,-3.906
-0.232,-1.013,0.457,-8.911,-22.156,-3.479
-0.286,-1.042,0.49,-17.517,-15.625,-3.113
-0.316,-1.069,0.505,-24.902,-10.071,-5.92
-0.318,-1.062,0.501,-30.151,-5.493,-12.878
-0.29,-1.03,0.526,-33.447,-1.221,-20.508
-0.255,-0.969,0.536,-34.607,1.587,-25.818
-0.233,-0.899,0.527,-33.508,2.258,-25.94
-0.217,-0.859,0.512,-30.64,2.686,-20.935
-0.195,-0.835,0.496,-26.367,3.052,-12.878
-0.167,-0.818,0.482,-20.142,3.052,-5.554
-0.149,-0.802,0.464,-12.817,2.502,0.061
-0.134,-0.815,0.481,-5.31,2.197,5.31
-0.126,-0.837,0.488,1.282,0.549,9.155
-0.116,-0.857,0.481,6.592,-2.808,12.024
-0.092,-0.889,0.474,9.705,-5.615,13.733
-0.074,-0.917,0.469,9.399,-8.911,13.794
-0.087,-0.931,0.453,6.104,-12.695,12.024
-0.126,-0.943,0.43,3.479,-14.771,9.338
-0.155,-0.97,0.427,2.197,-13.245,6.165
-0.167,-0.99,0.428,-0.977,-9.216,2.075
-0.167,-0.979,0.434,-6.165,-4.761,-2.136
-0.166,-0.954,0.451,-11.047,-0.916,-5.31
-0.17,-0.917,0.461,-13.245,2.014,-6.958
-0.172,-0.885,0.463,-13.306,3.845,-5.676
-0.156,-0.874,0.485,-13.367,5.432,-2.686
-0.142,-0.869,0.502,-12.329,4.883,0.305
-0.142,-0.854,0.501,-9.399,1.404,2.075
-0.139,-0.853,0.488,-5.615,-2.197,3.662
-0.131,-0.868,0.477,-2.441,-4.822,5.31
-0.135,-0.886,0.465,-0.671,-7.385,6.104
-0.161,-0.903,0.449,0.183,-9.583,5.493
-0.193,-0.926,0.429,1.526,-10.132,3.906
